timestamp,VN1002_acc_x_m/s/s,VN1002_acc_y_m/s/s,VN1002_acc_z_m/s/s,VN1002_ang_x_rad/s,VN1002_ang_y_rad/s,VN1002_ang_z_rad/s,VN1002_mag_x_ga,VN1002_mag_y_ga,VN1002_mag_z_ga
2015-03-26 18:23:00.800,0.0248999518966893,-0.0106866425920994,-9.75135562176813,-0.0004412325896763,0.0001669722670362,-0.0001181236384155,0.0330526573400706,0.0420950263539436,0.4236189474397052
2015-03-26 18:23:00.900,0.0338619436576724,-0.014416853643057,-9.731704861971057,-0.0005032710251726,-0.0003488509787465,0.0002636421934355,0.0320178205547689,0.0429949391849288,0.4242414627108371
2015-03-26 18:23:01.000,0.0467598817270173,-5.078506017090409e-05,-9.755948389947942,-0.0013128057443332,-0.0010117558635809,0.0001265788772255,0.0319527003560738,0.0423927915114514,0.4254197423246968
2015-03-26 18:23:01.100,0.0310484873000035,-0.0099826994848205,-9.768953592897963,-0.0008771525366696,-0.0002632305220734,3.574637743174023e-05,0.0330448046829912,0.0429737780475782,0.4242886185793594
2015-03-26 18:23:01.200,0.0110622175180294,-0.019936228446867,-9.761791179748007,-0.0002242645287438,-0.000545902000078,0.0004887010511069,0.0313920273223871,0.0402339606585158,0.4252364095238404
2015-03-26 18:23:01.300,0.0434252704627303,0.0001570408513062,-9.735738718640864,-0.0002384160189046,-0.0007605102597485,0.0003372266233426,0.0323019900067939,0.0411778880794638,0.4284798652326529
2015-03-26 18:23:01.400,0.0353869060971666,0.0052948038841979,-9.732148138377488,2.7774598142931803e-05,-0.0010575750017285,-0.0005808257113604,0.0318054043826627,0.0396491671737636,0.4280450187039143
2015-03-26 18:23:01.500,0.0320772388679027,0.0038984250770792,-9.73827173503054,-0.0003119812945896,-0.0008908757547484,6.595169172888124e-05,0.0324730538010124,0.0397767208309981,0.4269044594809333
2015-03-26 18:23:01.600,0.0277093006713261,-0.0048645416860468,-9.727044857195452,-3.1113593434640375e-05,-0.0020812099186031,-9.090298258462204e-05,0.0327129977048205,0.0413687961024517,0.423161895196437
2015-03-26 18:23:01.700,0.0239376667549045,-0.0121143044744383,-9.722062517190915,-0.0005552197342179,-0.001016387272315,0.0002234999317109,0.0337837373720988,0.0426741308847647,0.4261688276224644
2015-03-26 18:23:01.800,0.0168139691472759,-0.0028307049245152,-9.767244512899811,-0.0007381617495631,-0.0007103723565182,-0.000148623308201,0.0336594359346108,0.0418874391564597,0.4275791011186179
2015-03-26 18:23:01.900,0.0245915990570271,0.0155049602955678,-9.725363929128807,-0.0006844192039347,-0.002448013058529,0.000354418570121,0.0324132189817415,0.0419638292809076,0.4254826100588915
2015-03-26 18:23:02.000,0.0088401512764689,-0.0018931983165044,-9.717018685835344,-0.0001350960643821,-0.002332385223732,1.844980881373304e-05,0.0315678276643652,0.0410427521168677,0.4261415557996512
2015-03-26 18:23:02.100,0.0316305137870819,-0.0093064627826948,-9.700365733722972,-0.0005132118781495,-0.0013421021541883,0.0007778254671573,0.0329275051101332,0.0412945896377777,0.4259534637754213
2015-03-26 18:23:02.200,0.0242676239387142,0.0020539362314293,-9.733009409201449,-0.0006307154159466,-0.001052400133108,0.0006888713285085,0.0339497264358176,0.0412734760070882,0.424360934252259
2015-03-26 18:23:02.300,0.0034432893015337,-0.0024174534623465,-9.741284070352798,-0.0005307111738472,-0.0014914769781937,-0.0001373331178896,0.0335656527525098,0.0414208341034307,0.4224864052967485
2015-03-26 18:23:02.400,0.0092788255485851,-0.0103243821909083,-9.71678131983505,-0.0003622144926279,-0.0011944664417465,0.0010094444013972,0.0331325861689828,0.0422758959252192,0.4233741454399232
2015-03-26 18:23:02.500,0.00028269442369,-0.0027349563418489,-9.71755675760391,-0.000262445498762,-0.0017952030386266,0.0006793487386431,0.0335417974067318,0.0423022882976752,0.4224753058089839
2015-03-26 18:23:02.600,0.0038443616930361,-0.002547302661407,-9.718871408504793,-0.0003894811553135,-0.0027292145411793,-7.825419237991514e-05,0.0336720640551816,0.0422146941415903,0.4199279018259023
2015-03-26 18:23:02.700,-0.0029695962735789,-0.0019594176975769,-9.70032326701813,0.0008627038121618,-0.0017493764282587,-0.0004004008944784,0.0336846139833859,0.0435400738619969,0.4219674436222153
2015-03-26 18:23:02.800,0.0001559320974563,-0.011692307036089,-9.737023521169244,0.0010833550845784,-0.0017002651296421,-0.0003301598764037,0.0332425226934785,0.0416028486619159,0.4236250086446957
2015-03-26 18:23:02.900,-0.0139831779674105,-0.0180631028641003,-9.737713790642294,0.0003366302881523,-0.001470229301595,0.0004264669101308,0.0339032266034538,0.0397890058500967,0.4253074607504636
2015-03-26 18:23:03.000,-0.0120492506210524,-0.0176564655323747,-9.7252776841602,-0.0001188324793148,-0.0021455394609901,0.0003252733884077,0.0318639459813207,0.039823906598596,0.4264205177496404
2015-03-26 18:23:03.100,3.716478568695399e-05,-0.0085928801436816,-9.72770310123492,-0.0007674267630651,-0.0031458564063926,-0.000690501644576,0.0328597129397114,0.0411197400373449,0.4259517615531533
2015-03-26 18:23:03.200,0.003154352003595,0.0037879024301198,-9.715211278484093,0.0001208098854457,-0.0023491021383227,0.00039131156132,0.0334118642546275,0.0428249156221826,0.4249921307832369
2015-03-26 18:23:03.300,0.0031380535169826,-0.0011280466767601,-9.713551655515497,0.0003329470623801,-0.0012972070343466,0.0004819526149265,0.0339447496639099,0.0430390249887138,0.4261441995509175
2015-03-26 18:23:03.400,-0.0095540597775879,-0.006999212548129,-9.735119535688415,-4.189938698846849e-05,-0.0009464303224477,0.0002441515891105,0.0325941649845491,0.0410199122543127,0.425253349815094
2015-03-26 18:23:03.500,-0.0079393623932342,-0.0021345748345214,-9.705503764158202,0.0002870352310854,-0.0004280305163561,0.0002238455058991,0.0320464997226696,0.0403593565996944,0.4233988628433232
2015-03-26 18:23:03.600,-0.0140887027647111,0.0029943260271964,-9.726045637147228,0.0002563367544944,3.3448975397493164e-05,0.0002855629184054,0.0346040322165437,0.0431620477907761,0.4243233155643465
2015-03-26 18:23:03.700,-0.016470665415512,0.0031863890903837,-9.70236082695872,0.0001141335247447,0.000818621627837,0.0004268711367031,0.0331497889709774,0.043166577893225,0.4240555663564789
2015-03-26 18:23:03.800,-0.0123561280309344,-0.0267685758937855,-9.719988209090584,0.0010236110281409,0.0013548226458063,0.0009047671499476,0.0344956771546563,0.0406125709028074,0.4253168827867403
2015-03-26 18:23:03.900,-0.0077502180130421,-0.010350060407794,-9.743026936860891,0.0013689017595229,0.0004046490937979,-0.0003543935591029,0.0341276906319356,0.0416175784881172,0.4243673503166595
2015-03-26 18:23:04.000,-0.0028045119833051,0.0002557634036046,-9.78167922273214,0.0006746648422738,0.0010775421261748,4.4730701485528255e-05,0.0337352655814523,0.0422251492973738,0.4231669988250522
2015-03-26 18:23:04.100,0.0030226789283398,-0.0071921804051072,-9.76562568449745,0.001035674287599,0.0016558327954145,0.0005259955192232,0.0350837685556512,0.0409916887633149,0.4243985194555889
2015-03-26 18:23:04.200,-0.0043430644180875,-0.0052069187116164,-9.759135312497532,0.0008036320217652,0.0020934497816846,-0.0003721317672293,0.0331744346546067,0.0409596383225942,0.4241078931834537
2015-03-26 18:23:04.300,-0.009205476995386,-0.0101818107108294,-9.748221957364716,5.721867933585292e-05,0.0017546348417941,-2.2209933042547745e-05,0.0346930167841987,0.04202110507677,0.4231968501033187
2015-03-26 18:23:04.400,0.0031955200387337,-0.0059350963296524,-9.758052872322892,5.444785938114028e-05,0.0018515240502258,0.0001324113846391,0.0339427409723403,0.0417124786408477,0.4243405588607231
2015-03-26 18:23:04.500,0.0027106232363343,-0.0086738718762466,-9.754719248861823,8.140994038143293e-05,0.0024369286799498,-0.0002754483824731,0.0326634195515935,0.0411931044076813,0.4247785070758226
2015-03-26 18:23:04.600,0.0035461081134722,-0.015958899274075,-9.74604091825425,-0.0003057878302205,0.0019980475560894,0.0001241668144786,0.0331786278800273,0.0414013875130732,0.4247876020101738
2015-03-26 18:23:04.700,0.0100725928038147,-0.0232158866761969,-9.770250090260545,-0.0002788628351139,0.0023753556777251,0.0005844739616661,0.0351216775241258,0.0439792933046604,0.4206030829626987
2015-03-26 18:23:04.800,0.0104843121887372,-0.0159467206843635,-9.773383635281569,0.0008391694696006,0.0023939506035927,-0.0005917394908515,0.0344814029429225,0.0434152224642379,0.422683790606937
2015-03-26 18:23:04.900,0.0015103997213387,-0.0081818062609212,-9.776642225020789,0.0009402800177017,0.0025802825590029,0.0003568036631586,0.0330456338567915,0.0420939717285248,0.4231426241778983
2015-03-26 18:23:05.000,0.0059166600391798,-6.662029554920304e-05,-9.769247103249892,0.0007422303985834,0.0029223108401427,-0.0005097898074563,0.0332390025548987,0.0415789644497973,0.4236273847327949
2015-03-26 18:23:05.100,0.0201935993962394,-0.0002494626167314,-9.77668068886908,-0.0004466438730601,0.0026369842738856,-2.771848967081467e-05,0.0331554153736164,0.0422798806828246,0.4245318581013403
2015-03-26 18:23:05.200,0.0328793932590207,-0.0069975432970281,-9.77963636054052,-0.0003479158455617,0.0029283771307522,-8.250949086882666e-05,0.0351529426566603,0.0416115656535178,0.4241513031652377
2015-03-26 18:23:05.300,0.024682652219389,-0.0021058252836187,-9.768916679514003,-0.0001358651688254,0.0030739239853108,-0.0003616380396196,0.0342049392037248,0.0433080002416423,0.4217579225036459
2015-03-26 18:23:05.400,0.028068590611809,-0.0129986774917909,-9.760865836466564,-0.0004166424330396,0.0024829188644231,-0.0007041223661245,0.0344848075647741,0.0442981448733998,0.4238209623204091
2015-03-26 18:23:05.500,0.0177641449971131,-0.0130877564532416,-9.7733114943008,-1.8840622153783345e-05,0.002440517994335,-0.0008933033652922,0.0342641502308977,0.0433180760422304,0.4247680180096027
2015-03-26 18:23:05.600,0.0196361766061736,-0.0103832882430711,-9.78090573323973,-0.0001958986709735,0.0034915721806855,-0.000704733285271,0.0335653946029543,0.04318196312726,0.4240626787594749
2015-03-26 18:23:05.700,0.0219453942559669,-0.0046558886874858,-9.779794479484634,-5.477226046984844e-05,0.0031716451657981,-0.0006583495225539,0.0333120776862312,0.0445680246291753,0.4217002256988219
2015-03-26 18:23:05.800,0.0335310541782233,-0.0046210386146707,-9.762769148774677,0.0008849866678651,0.0027771598991561,-0.0003367879787471,0.0338263065056651,0.0461039682947065,0.4230544650441736
2015-03-26 18:23:05.900,0.0402363994594972,-0.0110263914961039,-9.767540402545722,0.0003612981131897,0.0024647920151319,-0.0010350601947048,0.0317692777071037,0.0428987890308117,0.4251692795580821
2015-03-26 18:23:06.000,0.0452319565136855,-0.0099675206683053,-9.769187788074808,-8.929229719650772e-05,0.002336451341427,0.0002457345542719,0.0315163747112339,0.0414750198434977,0.4242899842415773
2015-03-26 18:23:06.100,0.0415393155443438,0.000748672924597,-9.767376407243765,-8.641331276643985e-05,0.0023059851027746,0.0001434736134793,0.032443248086023,0.0430217562486454,0.4244884393021524
2015-03-26 18:23:06.200,0.0291831153927266,-0.0116905776470915,-9.737087499535663,-0.0001814160771751,0.0016713235385896,-0.0007438712711174,0.0319537052850904,0.0419408066441108,0.4247384474995614
2015-03-26 18:23:06.300,0.0582726939622316,-0.0181297357757672,-9.749488144222502,-0.0004600729384589,0.0014924447512162,-0.0003174269480184,0.0318841966817737,0.0445756485180392,0.423965683686158
2015-03-26 18:23:06.400,0.0516469900901467,-0.0091218206817454,-9.760200485010296,-0.0005283215344132,0.0015847737553588,-0.0002045979625698,0.032012445846192,0.0430267784884837,0.4244716849019867
2015-03-26 18:23:06.500,0.0569788193988769,-0.0155337901701418,-9.760411184981937,-0.0001755049574566,0.0013279706732064,-7.344283690327854e-05,0.0317617026126152,0.0415756792924418,0.4233600204451669
2015-03-26 18:23:06.600,0.0489130375252529,-0.0018419646152543,-9.752847736238332,-0.0001971135386561,0.0017191581521977,0.0004704087254145,0.0306881807346729,0.0405416357288027,0.4249729683616469
2015-03-26 18:23:06.700,0.0467088416962639,0.0062756335860457,-9.746733518382696,-0.0004609493473069,0.0017685521943676,0.0002228726695644,0.0313557389072565,0.0411102964078149,0.4242820169149146
2015-03-26 18:23:06.800,0.0584074281953345,-0.0010267125492841,-9.75209918664376,-0.0001185956783633,0.0007749420850833,0.0003980233533931,0.0316462955678458,0.0413875247839076,0.4217364569133208
2015-03-26 18:23:06.900,0.0542986781822166,-0.0156070836762653,-9.728218314257935,0.0001185049023834,0.0002109587071359,-5.729619031011549e-05,0.0319082088886548,0.0419334621545038,0.4224238121629795
2015-03-26 18:23:07.000,0.0534181584799062,0.0067191440069972,-9.723912955417456,-0.0004447746290001,-4.356595208975237e-05,-0.0011172150255647,0.0320271524624042,0.0421206327759444,0.4242747413353757
2015-03-26 18:23:07.100,0.0603125962790676,-0.0017405490424571,-9.741028587160924,6.200414269880004e-05,3.916814601125512e-05,-0.0004399502861676,0.0314981112157498,0.0423509344998694,0.4240185410057907
2015-03-26 18:23:07.200,0.0414870890885559,-0.0172153414759769,-9.729872521438514,0.0002181023263933,6.539471771949005e-05,0.0003160261814538,0.0320560807695342,0.044042292154242,0.4237571459587801
2015-03-26 18:23:07.300,0.039835138577082,-0.0174050526643425,-9.769282794023196,3.84574500988648e-06,-0.0006005146436217,0.0005910568714415,0.032312386852633,0.04328340634415,0.4224033884976443
2015-03-26 18:23:07.400,0.0355461652806342,-0.0141635689901903,-9.736900996309108,0.0002722535637731,-0.0007394895168755,0.0001805014939396,0.0318840694775462,0.0417619220818136,0.4254388947831736
2015-03-26 18:23:07.500,0.0589551159495323,-0.0016884559786558,-9.741990719022592,-0.0001289117244697,-0.0010976653522695,0.000171077037121,0.0312037741052554,0.0403091701360157,0.4245336115908134
2015-03-26 18:23:07.600,0.0543325067444491,-0.0042686610511144,-9.739218325150013,-9.30371051448606e-05,-0.0005352508517374,2.8516084899914487e-05,0.0312449569890085,0.0418065401768949,0.4237965823023257
2015-03-26 18:23:07.700,0.0456698397356257,0.0051428513288115,-9.728550205954134,-0.0004031790864707,-0.0024995568090451,0.0002342194186972,0.031884596148736,0.040879853971759,0.4245380404509738
2015-03-26 18:23:07.800,0.0233052665278093,-0.0131814286506501,-9.71983272838115,-0.0004269862687294,-0.003342210061534,5.293824487968738e-05,0.0330110791148904,0.0451756300230026,0.4246791594205139
2015-03-26 18:23:07.900,0.0462804809921453,-0.0106963728778909,-9.747749640460912,-0.0004663375109576,-0.0030957174861746,0.0001932879532306,0.0326068366141879,0.0438303560672361,0.4247035250593653
2015-03-26 18:23:08.000,0.0402597641591868,-0.0057474790183561,-9.714210533654622,-0.0010544233047329,-0.0032371609346862,-2.0070106426459302e-05,0.0323956166372567,0.0415284638422161,0.4247644620833935
2015-03-26 18:23:08.100,0.0331493085628874,0.0060148022453646,-9.72465772021417,-0.0005610091678581,-0.0042612008420751,-0.0002466773722868,0.0317839496753848,0.0426272802701545,0.4212427353671153
2015-03-26 18:23:08.200,0.0026484009945377,-0.008951694394852,-9.695641676941367,0.0002381299857082,-0.0032567809045075,0.000356295619556,0.0327084853459836,0.0413681729610857,0.4229292050996557
2015-03-26 18:23:08.300,0.0126749082544373,-0.0102673279876532,-9.719176427325902,0.0010060902292137,-0.004248620654487,0.000463925808947,0.0333460738840765,0.0400079529206024,0.4232259716521855
2015-03-26 18:23:08.400,0.0083519192994459,0.0010141358233508,-9.729228295126164,-4.117637945939871e-05,-0.0050998613692639,0.000650274480577,0.0330923299338984,0.0418207504623305,0.420851121689313
2015-03-26 18:23:08.500,0.0184591764083717,0.0029531581645361,-9.739794857646844,-0.0005987716738038,-0.0051784735173092,-0.0001755046672785,0.0325200108951349,0.0414428171352032,0.4222274964547841
2015-03-26 18:23:08.600,0.0122256515585521,-0.0096922089435729,-9.715538815873638,-0.0005546969225661,-0.0055194965894594,9.051099845394238e-05,0.0341486772514639,0.0435726201929599,0.4236039466684841
2015-03-26 18:23:08.700,0.0085480306419471,0.0143975905486906,-9.708669012919383,-3.711370075912688e-06,-0.0051937810082402,0.0002124560055783,0.0329660534321377,0.0419352791578132,0.4224702697178553
2015-03-26 18:23:08.800,0.0072664212873552,-0.0029292991999581,-9.72396061601595,0.0007136288471018,-0.0053360188267244,0.0001002021050638,0.0328317602055441,0.0421613765705049,0.4212907354264249
2015-03-26 18:23:08.900,-0.0185216417625334,-0.0034036569382709,-9.708228124299806,0.0015850869005468,-0.0049058327116159,-0.0006879565391396,0.0335742730576004,0.0409811364504602,0.4225034364395448
2015-03-26 18:23:09.000,-0.0134978959923744,-0.0150307261645652,-9.725543239282514,0.0004153803582714,-0.0057123697818885,-4.458157670187948e-06,0.0365828950591686,0.0438141457771003,0.4243655652721725
2015-03-26 18:23:09.100,-0.0184786601885458,-0.0100858987726146,-9.712305314116362,8.225363043043675e-05,-0.0052242921238096,-0.0003257962774656,0.0347188851710035,0.0429076380531068,0.4254930307584514
2015-03-26 18:23:09.200,-0.0354122733494797,-0.0061824640673487,-9.704063940488249,-0.0002165903624536,-0.0048782377052036,-0.0005345696492958,0.0352761334573052,0.0428493649442643,0.4229665121677923
2015-03-26 18:23:09.300,-0.027647703993495,-0.0032030832736718,-9.705076550430215,-0.0005858043650614,-0.0041985837230466,0.0001491740396745,0.033992879910349,0.0418883187754052,0.4227213520447135
2015-03-26 18:23:09.400,-0.0288810443726628,-0.0107406976589127,-9.7084365658526,-0.0002544685438942,-0.0032836722499781,6.34880688488152e-05,0.0347243626081127,0.0415853023871186,0.42437201629736
2015-03-26 18:23:09.500,-0.0440409934772387,0.0094344876744019,-9.734181551370233,0.0004426894628,-0.0021550860472598,-0.000193033460925,0.0346551053168996,0.0418472168653203,0.4255191043715206
2015-03-26 18:23:09.600,-0.0310227607526619,-0.0041736838795892,-9.70649344225703,0.0006389531131962,-0.0022815688417969,6.679789526812266e-05,0.0352024695476807,0.0435515480700592,0.4243297365260471
2015-03-26 18:23:09.700,-0.028168196218373,-0.0073145350418562,-9.7212178965348,-0.0001742310665823,-0.0020800091175199,0.0004722123065187,0.0341451540701412,0.0426896975008519,0.4224684521560688
2015-03-26 18:23:09.800,-0.023681568308162,0.0121546864893018,-9.724989196395144,0.0004148024574254,-0.0021315176608826,0.0002507831297934,0.034306229237304,0.0406784705747312,0.424151535361618
2015-03-26 18:23:09.900,-0.0382657277230747,-0.0028663530861835,-9.70416071198276,-0.0011038979606042,-0.0018102807935373,0.0010179925170573,0.0344354133793195,0.0414757157302314,0.4227428814092649
2015-03-26 18:23:10.000,-0.0571182507392409,-0.0066323735700792,-9.734779822003777,0.0002374490511935,-0.000745886310964,4.706328990672446e-05,0.0352821070307696,0.0395952882904752,0.4242136549283909
2015-03-26 18:23:10.100,-0.049837685313248,-0.009997578086209,-9.74741499454469,0.0004094078754443,0.0002134355304801,0.0007325886811871,0.0355168030386803,0.0401364235827076,0.4235114373260689
2015-03-26 18:23:10.200,-0.0456499334081193,-0.0154184124578026,-9.755629094578293,0.0003331831136046,0.0012098705621365,0.0001270375728807,0.0372774881223311,0.0443870812506113,0.4250646096905692
2015-03-26 18:23:10.300,-0.0451012512839938,0.0002985926562891,-9.729810683734703,0.0001929964300842,0.001923947408143,0.0001036550927757,0.0367950227503653,0.0447931285808463,0.4229541432790358
2015-03-26 18:23:10.400,-0.0278909517659467,0.0133322887480517,-9.736287349405083,-0.0004393030522421,0.0014733202207213,-0.0005051451458972,0.0347100041845024,0.0420236991589992,0.4241294432089582
2015-03-26 18:23:10.500,-0.0335506254046803,0.0153003526644287,-9.756668883575417,1.2974333481178623e-05,0.0017586410722566,-4.243728261718227e-05,0.0356542977130695,0.0418176301754569,0.4234680577928016
2015-03-26 18:23:10.600,-0.0324875518798493,-0.0017037786051285,-9.765598410572546,0.0002827278728461,0.0017548630766833,-1.0385313958653488e-05,0.0353170417429158,0.0456704281216828,0.4235782914548071
2015-03-26 18:23:10.700,-0.0269036426728611,-0.007633453213479,-9.741148274183516,0.0003072654690748,0.0031243749167632,-0.0006023266874146,0.0346088515999937,0.0431627440197088,0.4245544170421154
2015-03-26 18:23:10.800,-0.0440092431024549,-0.000599451138657,-9.730557195893793,0.0002270365260098,0.0037990865498899,-7.077039470770288e-05,0.0362484263477493,0.0417654768370897,0.4227917881560021
2015-03-26 18:23:10.900,-0.0317769389213885,0.0068251753787001,-9.74939374586881,0.000120429456537,0.00440896875262,1.365919892494229e-05,0.0363589004091394,0.0406280267964001,0.422829695954376
2015-03-26 18:23:11.000,-0.0350864467437302,-0.0152184416060534,-9.751185242235865,-0.0004128598168123,0.0043820465523445,3.7394309168618754e-05,0.03459629635181,0.0409552281130827,0.4216094389752723
2015-03-26 18:23:11.100,-0.0098582176129997,0.0013396474374517,-9.746881799226207,0.0004349900179646,0.0046959630407126,-0.0004175279153665,0.0342695496389977,0.0430450853333475,0.420379656256145
2015-03-26 18:23:11.200,-0.0007317207040316,0.0064677240315994,-9.746985524535337,0.0001840704868791,0.0053483741568045,0.0005168354128501,0.033881566946976,0.0439077682318352,0.4235854544092892
2015-03-26 18:23:11.300,-0.0155935774491575,0.0147952768399304,-9.75398404150381,0.0003772116002714,0.0050329577974737,-0.0005318823011054,0.0335224956649381,0.0421287521003266,0.4254787102132667
2015-03-26 18:23:11.400,-0.0060523412605214,0.0009532712810985,-9.773146623788849,-0.0002170532567065,0.0053079616991661,-0.0005924706356321,0.0331775581905149,0.0409602553038035,0.4243463375531922
2015-03-26 18:23:11.500,0.0017367573158002,-0.0043325925994412,-9.77711380267209,-2.5567396956073536e-05,0.0059247830839139,0.0001191648525966,0.0335831322492646,0.0405417212026208,0.4225189096248955
2015-03-26 18:23:11.600,0.0036561653126319,-0.0087673818545056,-9.768536022220117,6.241373404023462e-05,0.0059145729998754,-0.0002641350186021,0.0339829022646385,0.0423277113235402,0.4227115733482661
2015-03-26 18:23:11.700,0.0227297879979153,-0.0059701440103506,-9.784286202286662,0.0003454368320356,0.0046543753293275,2.1917238360927872e-05,0.0333295350324924,0.0413206128784504,0.4236462765695633
2015-03-26 18:23:11.800,0.0118943429725489,-0.0017379937027269,-9.7776605941513,9.205749051499803e-05,0.0044984538617893,0.0004269062691594,0.0327822059796926,0.0415479476699028,0.422465041650118
2015-03-26 18:23:11.900,0.0240824319057098,0.0117791171486251,-9.800914399027862,0.0009756129838052,0.0051011039847924,0.0008455916313403,0.032174124791924,0.0433456836766947,0.4239941983173665
2015-03-26 18:23:12.000,0.0415907815876903,-0.0037454021869043,-9.775204471295671,0.0007211244972983,0.0048836742296056,0.0007019459305686,0.0342964339279507,0.0448121498269881,0.4240384791031858
2015-03-26 18:23:12.100,0.0282575757698371,0.006539997350477,-9.780224507118463,0.0008047113182943,0.0050446706423613,-0.0001219573346884,0.0340649450031206,0.0442731898344808,0.4245086571795023
2015-03-26 18:23:12.200,0.0336844674039997,-0.0002318914754269,-9.787358688353308,0.0006603953843393,0.0049927691700067,-0.0007251391919358,0.0322244074027524,0.0420471749372188,0.425441697405862
2015-03-26 18:23:12.300,0.0391053397667761,-0.0140403432663798,-9.77309455077303,3.510657542034076e-05,0.0042265261764089,-0.0009783691534549,0.0304116842237896,0.0413164637454162,0.4249422137911158
2015-03-26 18:23:12.400,0.059380200659611,-0.0041822188984297,-9.757059938108522,0.0008553556617578,0.0036617052938755,0.0004806940285372,0.0312311568310123,0.0426863449306503,0.4240003048550531
2015-03-26 18:23:12.500,0.0529954103675746,-0.0128493629733769,-9.775440064853086,0.0002821636384341,0.0041213797016443,-0.0001100902370614,0.0314016219154918,0.0426084859416502,0.4237753722588221
2015-03-26 18:23:12.600,0.0509944782115328,0.0003380949353712,-9.789187083930443,0.0001419706117934,0.0037324065066637,-0.0001850001531447,0.0328090653187499,0.0456897699036135,0.4237304976185116
2015-03-26 18:23:12.700,0.0635113695631768,0.0074603843038049,-9.752535314928442,-0.0003798384726139,0.0029240539951813,0.0006522526035935,0.0321323704593686,0.0427467400650948,0.4258803944888261
2015-03-26 18:23:12.800,0.0621397695733655,-0.0221050803621665,-9.797565399388189,-0.0005389321907458,0.0023241369972996,0.000240306740002,0.031412024513496,0.0408462523735396,0.4224376358068458
2015-03-26 18:23:12.900,0.0530976092758889,-0.0028029200959521,-9.798561315878716,0.0002747785592856,0.0023273748593021,9.42379323149974e-05,0.0309832630487948,0.044074415978738,0.4216357197394186
2015-03-26 18:23:13.000,0.0701800425958242,-0.004108741971497,-9.784666984799545,0.0007133401401423,0.0024825573892089,-0.0007195560287871,0.0309597032286662,0.0425801714188156,0.423301300371932
2015-03-26 18:23:13.100,0.0774334867713445,-0.0063959679308276,-9.792806037055948,-0.0002700225806019,0.0013271015069464,-0.0006159443326446,0.0299378254396463,0.0421649589366914,0.4237464929370554
2015-03-26 18:23:13.200,0.0663628777826044,-0.0114023263019162,-9.77229330502608,-0.0005532036698522,0.0011500368697464,-0.0002738325971233,0.0308992698476362,0.0424026943284589,0.4244641904654317
2015-03-26 18:23:13.300,0.057270991433602,-0.0110443208380236,-9.77261260338774,-0.0003332870133796,0.0012078991001228,0.0004316359316234,0.0309922091557746,0.0431940773366514,0.4212024161831155
2015-03-26 18:23:13.400,0.0552804361586199,-0.0027873476625619,-9.780309702116655,-0.0009054012706185,0.000784564064754,-0.0006574684385213,0.0324890142995636,0.0440807856970188,0.4241911442393878
2015-03-26 18:23:13.500,0.0685438589209438,0.0100616455778106,-9.7676976486839,0.0001790540085815,-0.0001550097794981,-0.0004980635766029,0.0319882114943716,0.0447584695608545,0.4248950442730712
2015-03-26 18:23:13.600,0.0595148088567994,-0.0126950352714534,-9.766357625090404,8.47835810845305e-05,-0.0006400054730422,0.0001870087568022,0.0326788964993253,0.0457739837228042,0.4260415602265682
2015-03-26 18:23:13.700,0.0630267411714986,-0.0057618017965449,-9.773830520069174,6.82130564167418e-05,-0.0011859259630135,0.000702315303244,0.0322022339543733,0.0444165754753592,0.4223602724958567
2015-03-26 18:23:13.800,0.0578046985000886,-0.0173194994233681,-9.75462347907204,-0.0006699118805508,-0.0028153639502858,6.733671074341736e-05,0.0322406025278873,0.0431079146971515,0.423073204106205
2015-03-26 18:23:13.900,0.0532593700525583,0.0057488606153494,-9.745115750600696,-0.0002401768184511,-0.0035475080537529,0.0004705566784493,0.0305190549719011,0.0443099228651665,0.4243922934751135
2015-03-26 18:23:14.000,0.0452615340479025,0.0005946121390505,-9.729038027795978,-0.0002028939863988,-0.0037287695544394,-0.0001022873435935,0.0317103711003629,0.0433301438958988,0.4226056949233748
2015-03-26 18:23:14.100,0.0533829939762251,0.0018539842329809,-9.722608594664017,-0.0003786802912455,-0.0044250341031298,6.520150187466008e-05,0.0336380776606797,0.0442471229541726,0.4247218346783804
2015-03-26 18:23:14.200,0.0408863896293596,-0.0086679468510304,-9.72758175990989,-0.0004658583889097,-0.0038198897327394,-0.0006104648564476,0.0332743204820285,0.0430905767282195,0.422231506829708
2015-03-26 18:23:14.300,0.0446165067017261,-0.0074305829044922,-9.725366738663183,-0.0003048784966941,-0.0044888605564665,-0.0001887498478303,0.0317012691902552,0.0424458467600962,0.4210122988218895
2015-03-26 18:23:14.400,0.0399175321560062,-0.0112285633003912,-9.716217337817463,0.0002318066105804,-0.0056173495604,-0.0002384672671023,0.0320925452627589,0.0414166356524769,0.4224438965206843
2015-03-26 18:23:14.500,0.0201238656171141,-0.0043641296596164,-9.711171420389562,0.0006211482076018,-0.0052342783386371,0.0006648733103592,0.0321477664432134,0.0405436539476599,0.4243207553086052
2015-03-26 18:23:14.600,0.0299702858137021,0.0017669739251412,-9.731612841658494,0.0002311530755926,-0.0052357377630162,0.00052889745045,0.0317973659544071,0.0411387099756262,0.4247575590991473
2015-03-26 18:23:14.700,0.0294049974292305,-0.0036370867166882,-9.7273324952254,-0.0005641998360475,-0.0060523643491954,-1.2396311563790388e-05,0.0342442181264662,0.0441965706017659,0.4247474845884662
2015-03-26 18:23:14.800,0.0224060768342919,-0.0025544792382672,-9.707128791674634,-0.000426087925827,-0.0057420550994682,-0.0007421478264302,0.0332972054139724,0.0426382922094758,0.4233767238284489
2015-03-26 18:23:14.900,0.0171301957046496,-0.0092358519566539,-9.709939639639302,-0.0005078659493544,-0.0048447312337101,-5.535188999824958e-05,0.0350308757934897,0.0440703682664896,0.4250093867461781
2015-03-26 18:23:15.000,0.0149928509433436,0.00189208130736,-9.717056516034605,0.0005287634115113,-0.0043206187355398,-0.0005835979042591,0.034760661682569,0.0426411642756218,0.4229578898384685
2015-03-26 18:23:15.100,-0.0017154469903777,-0.0087551918086595,-9.726921750702132,0.0001585474997391,-0.0053458284490178,-0.0005940475273018,0.0336789127850357,0.0416074095662296,0.4241124930220341
2015-03-26 18:23:15.200,0.0033269671329918,-0.0062103731564186,-9.714765801554364,-0.0011096760105845,-0.0051981531038641,0.0001885865429077,0.0336838828051535,0.0407258917214252,0.4234445411145813
2015-03-26 18:23:15.300,-0.0106633403431402,-0.0068188261180767,-9.7071791785352,-0.0005161486385128,-0.0046803670352631,0.0002756034172457,0.0342771076042493,0.0415555393868377,0.423671513015051
2015-03-26 18:23:15.400,-0.0188952559775413,-0.0081843386568442,-9.71120363514526,-0.0004329343425612,-0.0045895111195389,-0.0002734819286971,0.0334391815022103,0.0410648400770444,0.4245871401901723
2015-03-26 18:23:15.500,-0.0220923739823281,0.0030470617512258,-9.726711642423933,3.568227352712718e-05,-0.0038111592803771,-0.0001230313145166,0.0348708760947501,0.0419444327055412,0.4234450278930414
2015-03-26 18:23:15.600,-0.0336160807382044,-0.0054681640590521,-9.711288681917726,-0.0009651358063615,-0.003493138762651,-0.0003163984085061,0.0349899353203314,0.0425729001044383,0.4257448109046549
2015-03-26 18:23:15.700,-0.0388500088196762,-0.002630376791641,-9.680191100189829,-0.0005687161184348,-0.0041222132896007,8.625294547755528e-05,0.0337850394100749,0.0417923583394604,0.4252646143097098
2015-03-26 18:23:15.800,-0.0258050979498862,-0.0167089474524951,-9.693890826202406,1.7760186087685198e-05,-0.0034927189179146,0.0005995071667446,0.0336703612506155,0.042046886298229,0.42409515079913
2015-03-26 18:23:15.900,-0.0280260863357235,0.0051123007930001,-9.702124919214814,-0.0001687438407729,-0.0024783422637422,-0.0002344250996349,0.0345498364492861,0.0412210933914462,0.4239137340421443
2015-03-26 18:23:16.000,-0.0196710421514227,-0.0026982288046389,-9.715347672910772,-0.0010638407716477,-0.002135873070558,-0.0004874009028609,0.0348167688361141,0.0408859554299893,0.4239323455339945
2015-03-26 18:23:16.100,-0.0301596134131486,0.0010499450014969,-9.720542824430344,0.0001005129215691,-0.0021239493379024,4.9903873831624985e-05,0.0348303433758336,0.0408881852237701,0.4246274582399123
2015-03-26 18:23:16.200,-0.0466725945377447,0.0036965869522719,-9.694405593854295,-8.32508401258098e-05,-0.00160629124878,0.0003436232013034,0.0355807560199142,0.041196916497658,0.4234840005918203
2015-03-26 18:23:16.300,-0.0499947133211349,-0.0163497853773254,-9.710476966549766,-0.0004543681159822,-0.0008946692674339,-0.0003099714163644,0.0357877588825768,0.0426160011167748,0.4222916895003862
2015-03-26 18:23:16.400,-0.0470755306069909,-0.0072771793627183,-9.704120955651543,0.000644742052906,-0.0005339063633419,0.0002787507664858,0.0345177617211638,0.0416572099534381,0.4227434002006487
2015-03-26 18:23:16.500,-0.0609570840812585,0.0002294585027045,-9.72612255502006,0.0005797173548885,-0.0006392795670318,0.0002224002775805,0.0354374980457013,0.0412791801035424,0.4250975378832484
2015-03-26 18:23:16.600,-0.0473412755873956,-0.0121204379768766,-9.713788818240914,-0.0002009031056582,-0.0004089951061864,0.0005642718766116,0.0358286292602303,0.0426226298751175,0.4243765079977844
2015-03-26 18:23:16.700,-0.0575801943813804,-0.0147300909344817,-9.73252501720967,-0.0006595314191673,0.0002129285054024,0.0002342972077939,0.0360313352607166,0.0435999849711613,0.4225028148089966
2015-03-26 18:23:16.800,-0.0486268557535115,0.008174381594164,-9.72904438397486,-7.700889785335773e-06,0.0011968908389611,-0.0001294077972551,0.0350969545965587,0.0429256831232718,0.4227261260718701
2015-03-26 18:23:16.900,-0.0555068043317085,-0.0076070755760902,-9.728893469039972,-0.0004083938339333,0.0017308361922306,4.869678843746414e-05,0.0340157048440536,0.0410100379346719,0.422980959139338
2015-03-26 18:23:17.000,-0.0324413926110531,0.0041001210341934,-9.723317134002071,-0.0005116488543074,0.0014409751358685,0.0003067269189215,0.033531650455664,0.0412476780277393,0.4250428954026894
2015-03-26 18:23:17.100,-0.0172965950004569,-0.0084788140189973,-9.707632426653907,-0.0003458520538021,0.0025734318685768,0.0002282114339816,0.0339642134666716,0.041274858052713,0.4250555646721543
2015-03-26 18:23:17.200,-0.0182697628311497,-0.0090497480971336,-9.714664787238894,0.0001643225262417,0.0033077482636317,-0.0002266701270861,0.0351965981139477,0.0420599631626741,0.4269244121854393
2015-03-26 18:23:17.300,-0.0240635493316732,0.0011612671021151,-9.740700570833924,0.0006999741962309,0.0040666628285346,-0.0001045650513615,0.0345535215188482,0.0401920089655457,0.4269670167855984
2015-03-26 18:23:17.400,-0.0254870033477729,-0.0068369668898127,-9.748392876209246,0.0006942065951929,0.0035751362559018,4.4393974941329714e-05,0.0343996367308336,0.0426148949495444,0.4266531528772542
2015-03-26 18:23:17.500,-0.0234461022071964,-0.0145466443296884,-9.737935758701344,-2.868178491084213e-05,0.0038926400978277,-0.00033596472398,0.0328369032907723,0.04304766292669,0.4224233756872184
2015-03-26 18:23:17.600,-0.0320634799331172,-0.0055648565524288,-9.735758210491673,-0.0001398414744042,0.0048429731831034,-0.0002420470455781,0.03392285346657,0.0421501455663998,0.4238705431088881
2015-03-26 18:23:17.700,-0.0155804723090977,-0.0065376657663798,-9.747286151589122,9.412420095025911e-05,0.0052614090703604,-0.0005782324924957,0.0328781316175186,0.0426132866295458,0.4240571625224713
2015-03-26 18:23:17.800,-0.0200868872331065,0.0008821967206648,-9.77018685626538,-0.0001227738947576,0.0044906956480537,0.0004505103571504,0.0346955351394996,0.0437858710619506,0.425236282362806
2015-03-26 18:23:17.900,0.0015660541723468,-0.001626856035867,-9.72372209514534,0.000347352859305,0.0043301873466998,0.0009270812137894,0.0336424627287203,0.0429243258021904,0.4236056678609055
2015-03-26 18:23:18.000,0.0120990898995847,-0.0055267362559804,-9.717614770771808,2.7535822195695955e-06,0.0038680840111532,0.0006400188092023,0.0333345203893879,0.0417622861186018,0.4243241327161821
2015-03-26 18:23:18.100,0.0169164307522802,-0.0113338763065228,-9.751165171062556,-0.0003573485728,0.005383412924117,-9.55262782853112e-07,0.0336974874174287,0.0420515884235803,0.4254857566962685
2015-03-26 18:23:18.200,0.0065956654866265,-0.0075553623958906,-9.781257647644075,-0.0004016836195992,0.0057023175204571,1.2311476068590194e-06,0.0324875439785794,0.0408290069895751,0.4243270193742297
2015-03-26 18:23:18.300,0.0135896793132134,-0.0187287202250051,-9.76876412854375,-0.0004818269212599,0.0051249954759319,0.0001123610504563,0.0331044082940888,0.0398982376938616,0.4239100300883496
2015-03-26 18:23:18.400,0.0097127586606949,-0.0235660895768862,-9.76643573249333,-0.0012032752103014,0.0035663193876342,0.0001935685571474,0.0339076052549257,0.0447939230842988,0.4258788995735733
2015-03-26 18:23:18.500,0.0187357425957257,-0.0255685146988801,-9.777140895342756,0.000351489186641,0.0041792373879048,0.0004486770069067,0.0338121716643801,0.0432879096568407,0.4238355655018769
2015-03-26 18:23:18.600,0.0178652993534953,0.0075141361238103,-9.804486098366691,0.0007331473471291,0.0039213668466312,0.0003534842078262,0.032666215398589,0.044007666313048,0.4235473204640286
2015-03-26 18:23:18.700,0.0272980962506379,0.0212341758594217,-9.802108568441804,6.454698014248561e-05,0.0032233100998767,-0.0001188952244862,0.0315528266375017,0.0429687110495778,0.4230793958773706
2015-03-26 18:23:18.800,0.0200258741866782,0.0082962031214155,-9.791193767283476,-0.0007151195152034,0.003203088521078,0.0005113327408363,0.031824804300499,0.0421931350137,0.4228779636882934
2015-03-26 18:23:18.900,0.0314535591381337,0.000315495234669,-9.785121210809086,0.0002798078391317,0.0026427979246859,0.0004178008446765,0.0330069681804334,0.0442930448852001,0.4235473391157988
2015-03-26 18:23:19.000,0.037610148697788,0.0188484669380553,-9.812604266495011,-1.5556557893416673e-06,0.0025684959375121,2.819185933266593e-06,0.0323630240604664,0.0428465149230627,0.4244949219769371
2015-03-26 18:23:19.100,0.0301124647516463,-0.0042620777940503,-9.770206162415128,-9.93234099141882e-05,0.0022542157096457,0.0002819529342264,0.0314847568833994,0.0423487049347223,0.4233223958360629
2015-03-26 18:23:19.200,0.0361332354307444,-0.0185396930702073,-9.756567944157538,5.874507360250909e-06,0.0016747254297285,0.0005512470373164,0.0326534126487256,0.0411914829866518,0.4243190461052233
2015-03-26 18:23:19.300,0.0339382563811312,0.0012355663791184,-9.751718487104018,0.0001027676018161,0.0016339211902754,-0.0009057853595913,0.0316963088798827,0.0433274428917764,0.4219139391369222
2015-03-26 18:23:19.400,0.0430232628338885,-0.0068824032008936,-9.74227318584913,-0.0004665435695006,0.0009199689316331,-0.0001184448875987,0.0312676517986696,0.044183493137567,0.4230336865507679
2015-03-26 18:23:19.500,0.0505057589024703,-0.0164291200871856,-9.776981319919376,-0.0002945710139874,0.0011680432821419,0.0002394969372399,0.0325664100299082,0.042941583578403,0.4217190522480924
2015-03-26 18:23:19.600,0.0509400590091581,-0.007614733340272,-9.786592942947426,0.0003854349563309,0.0007177288444247,0.0001926528560275,0.0325657508712094,0.0414505942773366,0.4245422435671966
2015-03-26 18:23:19.700,0.0381688945788484,-0.0097270864891664,-9.76815211519751,-0.0005996547691899,0.0004208467557106,0.0008147441200234,0.0316767198327909,0.0407838993659527,0.4270818064764954
2015-03-26 18:23:19.800,0.0423874290938469,-0.0017735434209755,-9.78380552570461,-0.0007030487549077,-0.000213450893036,0.0005442397501351,0.0313738870132262,0.0406722401979213,0.424759363096577
2015-03-26 18:23:19.900,0.0302855356340268,0.0003095470647399,-9.788343664386735,-2.3279311089859306e-05,-0.0006882022992,0.0004934369167529,0.0312853555841181,0.0446276423311924,0.4244113932589844
2015-03-26 18:23:20.000,0.0469211356971012,0.006285400799184,-9.78102369289312,-0.0005385715417943,-0.0008963412517833,0.0005193099165189,0.0330982041835907,0.0457989020800807,0.4253588498566327
2015-03-26 18:23:20.100,0.0413096727643872,-0.0048563233253462,-9.77721580839617,0.0001549446032464,-0.0013743431978855,-0.0002161028197595,0.0324549105669973,0.0430289967457085,0.4249548895646565
2015-03-26 18:23:20.200,0.0424387458725927,0.0013216767658965,-9.76805036711898,-9.810288885304102e-05,-0.0021331963821976,-0.0005340717641552,0.0312369954203022,0.0404820320922057,0.4219810596155133
2015-03-26 18:23:20.300,0.0357175396363203,-0.0087040010961727,-9.77009104390874,-0.0004089182722665,-0.0019398263716191,-0.0007632253072086,0.0302779529574997,0.0409593719216827,0.4265693348628185
2015-03-26 18:23:20.400,0.0494850843079551,0.0038272259110095,-9.760397923201078,0.0009047342062297,-0.001587491362492,-0.0008595185031814,0.0314844385136424,0.0419076786494726,0.422875064737454
2015-03-26 18:23:20.500,0.0528332162567921,-0.0042952797023879,-9.782302377134936,0.0004299957826424,-0.0018766178580401,0.0004220729841536,0.0325572411583499,0.0405670529997614,0.423177292248644
2015-03-26 18:23:20.600,0.0292059683549846,-0.0249103239396365,-9.779557562028735,0.0002416066853998,-0.0022318544066907,0.000457968458896,0.0314707806526782,0.0399735226478972,0.4245511695105836
2015-03-26 18:23:20.700,0.0479519696063475,-0.0091494411694147,-9.758172219183612,0.000174603375077,-0.0018705124015122,-0.0001410964164369,0.031733149957618,0.0428925007623208,0.423314604731587
2015-03-26 18:23:20.800,0.0317525408969144,-0.012171135748201,-9.75893567898624,0.0003012503733018,-0.0025817655638551,0.0001939919393835,0.0338808432788702,0.0437403193019442,0.4277548674301901
2015-03-26 18:23:20.900,0.023873783611708,-0.015269825064406,-9.771581819191589,0.000257042864207,-0.00358678773875,7.91193692843744e-05,0.0334170211283381,0.0428256350125203,0.4252209662308608
2015-03-26 18:23:21.000,0.0340957757436874,-0.0286046883945641,-9.768106931747576,0.0004524104170578,-0.0029142665538543,-0.0002483451663161,0.0323307836684439,0.0422322662618698,0.4265924785746497
2015-03-26 18:23:21.100,0.0315248688339272,-0.0157272319630456,-9.764280888573692,-0.0001778784434976,-0.0022625604179303,-0.0004792143880188,0.0315807786164625,0.0410413093719624,0.4268355658358712
2015-03-26 18:23:21.200,0.0250586680877667,-0.0144416050889415,-9.74259439693122,0.0001097275910964,-0.0026667943671652,0.0004379673504405,0.0318943289278142,0.0404402810521913,0.4245492591919294
2015-03-26 18:23:21.300,0.0278626269119945,-0.0060389241044413,-9.710070577688446,0.0001751660243418,-0.0025499711438285,0.0002439782649332,0.0318335458592425,0.0411448168280837,0.4266114905908448
2015-03-26 18:23:21.400,0.0307181775170167,-0.0089859879148534,-9.755861953289124,-8.417235522492407e-05,-0.0018100518488228,0.0003616488466214,0.0325738818371839,0.0404021139324027,0.4282774439814817
2015-03-26 18:23:21.500,0.0134155496983887,-0.0140135987658112,-9.742510296763074,0.0002956814223343,-0.0029717567152587,0.0006917720000178,0.031961637310904,0.0423833991005917,0.4256564977448236
2015-03-26 18:23:21.600,0.0053945954102442,-0.0221385895754778,-9.74113564954254,3.076062061119302e-05,-0.0038966406653266,0.0010382019206374,0.0335027362035815,0.0443306397502172,0.4268053615274313
2015-03-26 18:23:21.700,0.0145545438461209,-0.0099111195989872,-9.72973902800547,-5.0613908501536e-05,-0.0028782967875919,0.0003810331670849,0.0330940383756877,0.0425429412249966,0.4261475445513906
2015-03-26 18:23:21.800,-0.0031520969279129,-0.0084793185591192,-9.721420456704148,-0.0002994506030879,-0.0032118551460321,-0.0005667760390697,0.0329878903145221,0.0436815318838303,0.4263434854488867
2015-03-26 18:23:21.900,0.0139931364672561,-0.0066050586889929,-9.726300892870492,-0.0010037789848119,-0.0022815620191124,-0.0001786892806927,0.0332747046410656,0.0435168129932708,0.4231129086116621
2015-03-26 18:23:22.000,-0.0133437954757668,0.0021285756549725,-9.689808445377128,-0.0006229613630289,-0.0014625738192616,9.566665730335476e-05,0.034930268002716,0.045209384757158,0.4254296076735417
2015-03-26 18:23:22.100,-0.019616816531508,-0.0092312731043038,-9.70064585399722,-0.0004221911088321,-0.0017491092045548,-0.0005042877306893,0.033182186318509,0.0422843504185634,0.4259243898526977
2015-03-26 18:23:22.200,-0.0021603288424574,-0.0034637064508676,-9.706811760844491,-0.0010207926517574,-0.0021007073504995,0.0005850594423734,0.0334455869809549,0.0406250021536704,0.4243582519013458
2015-03-26 18:23:22.300,-0.0166684957798221,-0.0057826851761172,-9.717571826041809,-0.0001803428871014,-0.0017163216992603,-8.916239243632542e-05,0.0325427544068336,0.0403969294575777,0.4266533978284498
2015-03-26 18:23:22.400,-0.0206190198035598,0.0099407388460167,-9.707713399144447,0.000336606717122,-0.0016243519777081,8.843805693641092e-05,0.0331264726517705,0.0412184864141969,0.4268844957056398
2015-03-26 18:23:22.500,-0.0109015675724589,-0.0006940159545348,-9.699758712130585,0.0003328804011991,-0.0022877175335136,0.0003083306627026,0.0323727103300358,0.0419634892251134,0.4238303580969971
2015-03-26 18:23:22.600,0.0105607817042008,-0.0188819490226719,-9.694980400367337,0.0005947892682053,-0.001087602860105,0.0002458690326536,0.0335885468633,0.0414248808408203,0.4236431111183222
2015-03-26 18:23:22.700,0.0126717196754359,-0.0057297613773121,-9.691587272496657,0.0001452749240797,-0.0012348851674864,0.0005143577433754,0.0336327020910416,0.0427551975327558,0.4273128810911404
2015-03-26 18:23:22.800,0.0168392975580982,-0.0085174790826221,-9.690036280669055,-2.6673858762414985e-06,-0.0012537719970648,-2.157282855856512e-05,0.0332367557894128,0.0414110960146765,0.4278048156733187
2015-03-26 18:23:22.900,0.01048033200414,-0.0030948643376327,-9.705599652518153,-3.625942360217512e-06,-0.0006213818333073,-9.041915757804765e-05,0.0344139319249123,0.0435101637867598,0.42824469061601
2015-03-26 18:23:23.000,-0.0201356131908276,-0.0069264254860494,-9.688922305607855,-0.0004608143314802,4.226308473354623e-05,-0.0004669421124572,0.0345305068157739,0.0425414679680766,0.4243405038892732
2015-03-26 18:23:23.100,-0.0207802034929125,-0.0102110350777448,-9.713268717514548,-0.0013258794085341,-1.9267332959659207e-05,2.2228140059151344e-05,0.0344575887917014,0.0406105156906086,0.4230038432334754
2015-03-26 18:23:23.200,-0.0144484756377715,0.0001859887302199,-9.695495569989667,-5.218995797599807e-05,-8.574844249404064e-05,0.0002881918139514,0.0339987402574169,0.0403971262048066,0.4257628269984683
2015-03-26 18:23:23.300,-0.0213205939711935,-0.0093061810132291,-9.712352460099542,-0.0009997025137041,0.0005570182906275,-9.487086088904834e-05,0.0325706177975556,0.0390781669810698,0.4266918952687021
2015-03-26 18:23:23.400,0.0040939098605067,-0.0103188666461109,-9.699466485503482,-0.0006800478376904,0.000315207751604,0.0001119894562878,0.0321193139701055,0.0399304455363941,0.4266548219375716
2015-03-26 18:23:23.500,-0.015002143949782,0.0020133028553871,-9.677820122670632,-9.219196812771092e-05,0.0009259681101531,0.0002133261787439,0.0358918975224598,0.0458884779278789,0.4265976934285272
2015-03-26 18:23:23.600,-0.0200294656790925,-0.0112646820803138,-9.718182547103131,-0.0005391333702274,0.0016845591704372,-0.0005638854277303,0.0338813649640273,0.0419752911529108,0.4259549556414693
2015-03-26 18:23:23.700,-0.0097854225037081,-0.0017517971717741,-9.712013883367288,-0.0002161683216121,0.0011542653853273,-0.0010826520317457,0.0333017045937675,0.041148176671551,0.4264250506198388
2015-03-26 18:23:23.800,-0.0112531834486931,0.0100345480921714,-9.722346477142176,-0.0005982910898304,0.0021100684476445,-0.0002472374901078,0.0347562929343611,0.0415904334872243,0.4259922223075222
2015-03-26 18:23:23.900,0.0068409368450127,0.0016565780239329,-9.729269784002566,-0.0007634890860819,0.0027938188532239,0.0001590451717459,0.0343426131358523,0.0426161575267316,0.4236348547495688
2015-03-26 18:23:24.000,0.0003251943238092,0.0016225070644737,-9.723611213970234,-0.0005864540100748,0.0019504885430115,-0.0006285830576815,0.0341431360813056,0.0429627755512427,0.4270931467681668
2015-03-26 18:23:24.100,-0.0015246428372504,-0.0062570265491619,-9.703255109011575,0.000280724147087,0.0020299531931988,0.0001489440972858,0.033660129588148,0.0418776061342311,0.427803650322263
2015-03-26 18:23:24.200,0.0039513908527159,-0.0160779495193053,-9.715704308898696,-1.4680534842602109e-05,0.0020339064351253,-0.0002138556282949,0.0337252711208133,0.0420558348799888,0.426871841454889
2015-03-26 18:23:24.300,0.0037512915342228,-0.0082599128373367,-9.743668753489748,-0.0002346871452953,0.0019764105414583,-6.845921219263337e-05,0.0322441340744112,0.0416093300413602,0.4259119405445905
2015-03-26 18:23:24.400,-0.0063297043878064,-0.0006184496447761,-9.743209581532584,0.0002956670395096,0.0030446752461749,-0.0004974600476195,0.032524303307083,0.0417172262328365,0.4270752855469515
2015-03-26 18:23:24.500,0.002465516569705,-0.0094091243754791,-9.750498885966785,-0.0009126168140656,0.0023410988040389,0.0004950573787496,0.0345998897902334,0.0416705895722626,0.4269087893064784
2015-03-26 18:23:24.600,0.0096058795070012,0.0135447589986804,-9.751090957165784,-0.0014154234609054,0.0016443936008397,0.0006086859547555,0.0326355994578337,0.0401388008885233,0.4266603499169771
2015-03-26 18:23:24.700,0.01088652568486,0.0050333380318276,-9.773219864687976,-0.0005016396945933,0.0013192126843838,-0.0003697208958545,0.0345683216229315,0.0416652814614837,0.4252861754288357
2015-03-26 18:23:24.800,-0.007889673696919,0.0058635491647992,-9.7616674480405,0.0002216998327873,0.0013226443207213,-7.413594428211028e-05,0.0345318816964091,0.0401686730020415,0.4262529130803622
2015-03-26 18:23:24.900,0.0093557978969122,0.0051244951610271,-9.778828940748008,-4.508078680505126e-06,0.0010004301278661,0.0007269220599923,0.0320962767855704,0.0416907396531508,0.4272933854526961
2015-03-26 18:23:25.000,0.0145304660271105,0.0036389761715041,-9.752278277275304,-0.0007799412144645,0.0003704053184789,0.0002478369625546,0.0329803044792154,0.0404250697705284,0.4268946135866333
2015-03-26 18:23:25.100,0.0115215761917891,-0.0008269973762855,-9.772889741796655,0.0001967636797533,0.000415226520103,0.0007007526706865,0.0324460355033875,0.0415365862086525,0.42730880863901
2015-03-26 18:23:25.200,0.0231554216404899,-0.0038555364675274,-9.758283064605632,0.000581251167649,0.0004473945863299,0.0005620872706101,0.0323271120152639,0.0413494472016757,0.4254582333537433
2015-03-26 18:23:25.300,0.017479771328512,-0.0162831834688518,-9.734924857883415,0.0007546918278763,0.0004632642013233,0.0003534385657465,0.0326276764715493,0.0403050584228967,0.4220247906003146
2015-03-26 18:23:25.400,0.0169476654550308,-0.0063129385057713,-9.742734103502446,-0.0001600767841318,0.0002982416988707,0.0003531276303265,0.0325619553758815,0.0395179565688207,0.4266769645113195
2015-03-26 18:23:25.500,0.0132096628102805,0.0158948749413784,-9.747645114187987,-0.0002265622140508,0.0008099286422809,0.0004681358944866,0.0315771507833742,0.0416495273083709,0.4228814057598522
2015-03-26 18:23:25.600,0.0210764732638285,0.011905028355281,-9.75995133758578,0.0003964332859306,0.0009712449190469,-0.0002211270634987,0.0320916386858158,0.0427397505702778,0.4237945002337051
2015-03-26 18:23:25.700,0.0192243363317598,-0.0028436357571852,-9.752676851228994,0.0005308711828164,0.0006564600610073,0.000212779442344,0.0334712412284253,0.0423934756183118,0.4275514048704676
2015-03-26 18:23:25.800,0.0220429954694327,-0.0207794167415728,-9.773447615782654,0.0008825097913944,0.0014902996265763,-0.0003907032150576,0.0322661692008328,0.0416129198814685,0.4270730886384701
2015-03-26 18:23:25.900,0.0199289939839114,-0.015698820341309,-9.779631576052688,0.0003486251562339,0.0012711250860845,0.0008658075071844,0.0332456634061326,0.0420174623623692,0.4252525491047499
2015-03-26 18:23:26.000,0.0275567473114688,-0.0018112645024022,-9.782346928876246,-0.0001280746431493,0.0009766711127737,-0.000141189830722,0.0327482082010888,0.0426958348773664,0.4261258596725241
2015-03-26 18:23:26.100,0.0239141318876936,0.0062055292832665,-9.77717904037011,0.0007685673962946,0.0008044250139163,0.0001393830417171,0.0336455636692453,0.0455713524778149,0.4265391803751697
2015-03-26 18:23:26.200,0.0274420019917244,-0.0002192785456599,-9.782082041231126,-0.0002134739852804,0.0008318169901351,-0.0003138708204346,0.0322669977267693,0.0426630519688106,0.4238009773745246
2015-03-26 18:23:26.300,0.0335445669575468,-0.0073119418340107,-9.774248636636132,0.0004433521466315,0.0001623152457039,-0.0002139369314892,0.0340424824977264,0.0423374274644612,0.4257181487363746
2015-03-26 18:23:26.400,0.0416002871574414,-0.0080594727909549,-9.743141490148108,0.0005483907270434,0.0005596429176765,-0.0001520809156,0.0324459666557949,0.0430274889626926,0.424492126959119
2015-03-26 18:23:26.500,0.0310236277053076,-0.0055141901283906,-9.76873710999519,-4.7845192702982166e-05,0.0006065497688949,-0.0004015376582653,0.0322296561043971,0.0416072424053298,0.4252215271301964
2015-03-26 18:23:26.600,0.0181871627610238,-0.0107677542694789,-9.781436045683694,0.0001106196900394,-0.000538444715567,-0.000244526815813,0.0334720288247542,0.0406293257615407,0.4257520402757369
2015-03-26 18:23:26.700,0.036414569996228,0.0062886954821729,-9.784456805783634,0.0006621113262405,-0.0002473886274727,0.000889182048248,0.0345242441024916,0.0447454514609027,0.4263619637220706
2015-03-26 18:23:26.800,0.0153102668277626,-0.0006128527146552,-9.789493925504908,0.0007411805208859,-0.0004427746384661,3.722626243252982e-05,0.0329791329997882,0.042356768946235,0.4245328728106073
2015-03-26 18:23:26.900,0.0119400356528588,-0.0079349580994436,-9.79353762050699,0.0008908651363199,-0.0003722081335005,-7.36258645124253e-05,0.0321230268432369,0.0418629202370988,0.4245211230652147
2015-03-26 18:23:27.000,0.0313751052133247,-0.0083011420720195,-9.77119966867952,0.0006263795919043,-0.0004554857742494,0.000102727271097,0.0314701266630869,0.0423466056195215,0.4226338994248133
2015-03-26 18:23:27.100,0.0419959080064348,-0.007099514391071,-9.757957544606548,-0.0004061851232862,-0.0004467025011364,-0.0003869850658833,0.0328270258557637,0.0443695884351292,0.4233119694391318
2015-03-26 18:23:27.200,0.0161369647265079,0.004089685216302,-9.746028851983878,-0.0003193068890704,-0.0009960756835878,-0.0002303181434979,0.0331207569986285,0.0444794499390738,0.425170249894242
2015-03-26 18:23:27.300,0.0153017136021936,-0.0023175159882225,-9.75760306012404,-0.0004019372715183,-0.0011259346956237,0.0001291976587008,0.0343730108339613,0.0430622116229334,0.4257121596258496
2015-03-26 18:23:27.400,0.0133035601659012,0.0006904177460402,-9.733654675862256,-0.0001959007929946,-0.0017940063097324,-0.0002679521213022,0.0324823200595462,0.0417103310613394,0.4249961803091843
2015-03-26 18:23:27.500,0.0217833206067935,-0.0155687730149099,-9.735281446616078,0.0005239622744965,-0.002564378513685,-0.0011077323503709,0.0327260481714327,0.042253284124738,0.4247577557390338
2015-03-26 18:23:27.600,0.0130076451123987,0.0007412586781374,-9.764059839544942,-0.0005217773335861,-0.0018647994338087,-0.0001657256287666,0.0330384736627901,0.0438571248938807,0.4247213921661409
2015-03-26 18:23:27.700,0.0281805881918619,0.0128808620289646,-9.727362338651233,-0.00030963701345,-0.00238291151129,0.0007087520013736,0.0340388958821433,0.0425046303069819,0.421316523262331
2015-03-26 18:23:27.800,0.0215719603125546,0.0137557798039803,-9.726191410396146,-0.0006821543986577,-0.0016679394603757,-0.0007576813521887,0.0331723130320822,0.0405300287310362,0.4229385434325511
2015-03-26 18:23:27.900,0.0159427254586942,-0.004627631795409,-9.72283491538581,0.0001928542931079,-0.0010513981526164,-0.0009834987970905,0.03297548204773,0.0405899153494404,0.4224999874395319
2015-03-26 18:23:28.000,0.0078663115516999,0.0005967591301185,-9.710669741312229,8.405389533589179e-05,-0.001502662701699,0.0001191005000455,0.03409876532359,0.041632160277009,0.4234247350239665
2015-03-26 18:23:28.100,-0.0060553327199763,-0.0128829293448062,-9.73095025496787,-6.056141589389871e-05,-0.0009902109826078,0.0003376118877974,0.0334129616937002,0.0410605583495937,0.4231906767582726
2015-03-26 18:23:28.200,0.0044359883687668,-0.0094159916210585,-9.730202545223127,-0.0002396883799394,-0.0012051130903378,0.0003064229020309,0.0325836703483792,0.0410122388361056,0.4250201363403859
2015-03-26 18:23:28.300,0.0124494962588696,-0.0107314681654683,-9.716123926683188,0.0001067087148969,-0.001103810170476,0.0007399475550556,0.0326854849973234,0.0403146168926478,0.4250417138806704
2015-03-26 18:23:28.400,-0.0033129866177046,-0.0191846239233125,-9.685865697355892,-0.0001467717331759,-0.0005681134158026,0.0005501942757651,0.033767660053725,0.0409072260025775,0.4234353043138897
2015-03-26 18:23:28.500,0.0012415643655026,-0.0141011379731568,-9.700465872446117,-0.0008853178218774,-0.0010775684193834,0.0006078496085564,0.0341253223767107,0.0425187536797426,0.4257164394283843
2015-03-26 18:23:28.600,0.0039810888917807,-0.0095541942784223,-9.705461621732043,-0.0004222747818453,-0.0004701971737885,-0.0004991611536308,0.033401969892865,0.0413324335865274,0.4273526628921149
2015-03-26 18:23:28.700,0.0064789041375564,-0.0020523494182104,-9.700875466120948,-6.831750416390843e-05,-0.0008070563439323,-0.0003012583668986,0.0316254175849622,0.0401666805743858,0.4282586151471635
2015-03-26 18:23:28.800,0.0177186428799505,0.0064211946101156,-9.696952107666029,0.0004477819430898,-0.0011148078264485,0.000245400840356,0.0316110755484122,0.0410462916170828,0.4284644575613031
2015-03-26 18:23:28.900,0.0133244393006431,0.0023674085621405,-9.696138675929614,0.0002206949947776,-0.0009890020020558,9.800792669522556e-05,0.032038763129789,0.0419546881491666,0.4291446467917026
2015-03-26 18:23:29.000,0.0091698691844166,-0.0078193475794745,-9.724877587372598,-0.0004018060494229,-0.001072009605889,-0.0004900664298001,0.0326375725494571,0.0419033859375549,0.4287003568854348
2015-03-26 18:23:29.100,-0.0110963818324538,-0.0061408893325444,-9.715496468996774,0.0002784291036516,0.0001694812940047,-0.0004751699021552,0.0338708726458047,0.041365414194314,0.4292185906695256
2015-03-26 18:23:29.200,0.0017953774811069,-0.0006654306365537,-9.689437393967909,-1.2093852136333686e-05,-0.0003673302601019,7.968419288874384e-05,0.0344327951883861,0.0417489316486859,0.4273716152909761
2015-03-26 18:23:29.300,0.0059290140237138,-0.0049774097781891,-9.701737923941328,-0.0007444503155304,-0.0013159125983922,-0.0002362356329506,0.0332188948809151,0.0405259020368812,0.4259790859697296
2015-03-26 18:23:29.400,-0.0036056495900136,0.0008814914829432,-9.723130694751958,-0.000715241679486,-0.0004801315898135,0.0005850577322696,0.0347999978627259,0.0430615797034479,0.4264073434912693
2015-03-26 18:23:29.500,-0.0073743229128045,0.0034855792015456,-9.718325851896775,-0.0001993406553424,-3.818009166933315e-05,0.001043474063344,0.0342711475582904,0.0427145350112953,0.4287184072825163
2015-03-26 18:23:29.600,0.013694095578589,-0.017222998366957,-9.702575838792606,0.0003008566489248,-0.0007790257451457,-0.000130851639812,0.0327679073000557,0.0413779832368736,0.4259395760359399
2015-03-26 18:23:29.700,-0.0027919174788391,-0.0132054610143175,-9.72019303731528,0.0008455623686843,-0.0008502343152984,-0.0003662925044336,0.0316591039486139,0.0407808312886297,0.4261523513820229
2015-03-26 18:23:29.800,-0.0037700250502855,-0.0084738477994944,-9.719366597616528,0.0001874255946954,-0.0010025813623387,0.0002849311436714,0.0337710799531134,0.0402992801335724,0.4273894696223705
2015-03-26 18:23:29.900,0.0053608716031287,-0.0065655267610724,-9.72351120664015,0.0001490422476166,-0.0005433846861355,0.0006224927737324,0.034736764332582,0.0433514834591165,0.4268694057151979
2015-03-26 18:23:30.000,-0.0097257239527926,0.0052529489391469,-9.728862432012294,-1.629789401214844e-05,-7.837335049683318e-05,-0.0002407452139149,0.0340915720448968,0.0427867984202732,0.4287202365906153
2015-03-26 18:23:30.100,-0.0205027786211161,0.0006794213929312,-9.703054713532426,0.0004843445908869,-0.000559333378618,5.462328281788067e-05,0.0346170159264295,0.0412322098486665,0.4273941471470886
2015-03-26 18:23:30.200,-0.0328898647633198,0.0029713225532375,-9.718520717553073,0.0002568659710965,-0.0001007415244822,-0.0003233387643719,0.03279966535777,0.040500902662988,0.4266637958101581
2015-03-26 18:23:30.300,-0.0080627786927962,-0.0038722162476158,-9.749660987463637,-0.0001362142239546,0.0004652476216171,-0.0005656380150083,0.0336262641709621,0.0436362702770862,0.4279888760405069
2015-03-26 18:23:30.400,-0.0123955127288709,0.0154993721524689,-9.73408120183828,0.0001520157797678,0.0002564667694451,0.0002932387119812,0.0346578660521972,0.0431711190309394,0.4271069620557075
2015-03-26 18:23:30.500,-0.0259511595371487,0.0091229864600523,-9.75090026664427,0.0004236886486479,0.0017040667522634,-0.0002415019010525,0.0335762089406539,0.0425783581325828,0.4287104688279303
2015-03-26 18:23:30.600,0.003320229819151,0.0065102233353948,-9.752694515550292,0.000494734853701,0.0020983242054159,-3.2838957238774486e-05,0.0326735979417623,0.0414685267065523,0.4301065399810193
2015-03-26 18:23:30.700,0.0064867959019674,-0.0068753571317195,-9.746026755548652,0.0003811054486344,0.0013045099361959,-0.0003044039019048,0.0335620015532298,0.0406443177606432,0.4303889472863779
2015-03-26 18:23:30.800,0.0039732136251414,-0.0204380314111178,-9.7502219590676,9.452121107307931e-05,0.0011529305320081,-2.802083853445692e-05,0.0320756621041864,0.0406377285648026,0.4296478236608714
2015-03-26 18:23:30.900,0.0187128092620003,-0.010020495250498,-9.777366835594696,0.0005536181880108,0.0011229975838843,-3.86986564618969e-05,0.0327067057607876,0.0420825630764505,0.4280038026833117
2015-03-26 18:23:31.000,-0.0046493381342303,-0.0004407476911704,-9.753140745768736,0.0012579145036498,0.000856029405635,0.0003104105800511,0.0333558612977699,0.0430891841680597,0.4268359107437269
2015-03-26 18:23:31.100,0.0065856231073055,0.0045488034660166,-9.758863795730958,0.0004171804000393,0.0012913239925747,0.0002483460066884,0.0314183235459361,0.0415616530001339,0.4279777833170313
2015-03-26 18:23:31.200,0.028350362180136,0.0081856820225813,-9.762861394118822,-0.0001368778893733,0.0008642862989444,0.0009126209312793,0.0312569979466334,0.0420820848851929,0.4291146155445773
2015-03-26 18:23:31.300,0.039186243525313,0.0087398360980164,-9.781899870844605,0.0010074913318122,0.0013444391592437,0.0009593232426964,0.0332650845943651,0.0396512990518709,0.427391585600556
2015-03-26 18:23:31.400,0.0203052660346621,0.0039440670000628,-9.790521678505405,0.0006300943763041,0.0016245737833058,0.0009500655968757,0.0328274924034531,0.0405054037808371,0.4280491874862659
2015-03-26 18:23:31.500,0.0156817568408588,-0.0046739560870186,-9.779181332869747,0.0012230210952722,0.0012551511627648,-0.0001499372194944,0.0316353569793743,0.0421001174705459,0.4263470036730843
2015-03-26 18:23:31.600,0.0163588999595148,0.0101137399514188,-9.767121119586294,0.0004070216567879,0.0009273398968651,-0.0007584537808641,0.0323763757051246,0.0432894080639527,0.425638743625865
2015-03-26 18:23:31.700,0.0205008842352379,0.0164362212457245,-9.789767415634676,-0.0006413974392122,0.0016078097330339,-0.0006077164884499,0.0331562518960067,0.0433327648155546,0.4215326018896575
2015-03-26 18:23:31.800,0.010988436693724,-0.0003131216992492,-9.777796010356653,0.000208321021601,0.0013386924733299,0.0001094864469069,0.0326193196716198,0.0429508509330723,0.4242496892728898
2015-03-26 18:23:31.900,0.0179264446989429,0.0073415505369212,-9.781821649054578,0.0008689939098564,0.0001946589444006,-8.69111434237296e-05,0.031958238583042,0.040451044771938,0.427790003184661
2015-03-26 18:23:32.000,0.022423425599469,-0.0145819992986477,-9.772561529511618,0.0004420093376465,0.0002077648586948,-0.0003047174109578,0.033595399445878,0.0421403746236753,0.4291816766417587
2015-03-26 18:23:32.100,0.0295526540932953,0.0024228469557238,-9.778761128325222,1.4011088782545838e-05,0.0012881483329245,0.0014353795784501,0.0326163667871149,0.0410178809514089,0.4266375488010499
2015-03-26 18:23:32.200,0.0319900820399031,-0.0046458012351215,-9.78816158557904,0.0009222143357195,0.0004044581554684,0.000829724638302,0.0328780673595005,0.0420046875406449,0.4277737291770844
2015-03-26 18:23:32.300,0.0427238091929316,0.0006329273185857,-9.762359602055296,0.0007608185377095,0.0003404461663873,-7.830702174304985e-05,0.031332135046101,0.0413799034555208,0.427744049235347
2015-03-26 18:23:32.400,0.0413902463218524,-0.0205179275396723,-9.76263933642006,0.0007605406217515,0.0004438101237971,2.2387184641339315e-06,0.0309913681788936,0.0415354361830266,0.4281911901385113
2015-03-26 18:23:32.500,0.0293575384860587,-0.0244166969098968,-9.7583896833064,0.0003220018194911,0.0009546825162685,0.000386531320909,0.0302783475673019,0.0414006508759174,0.4270168551696147
2015-03-26 18:23:32.600,0.0273289817835318,0.0001606261369533,-9.766061686717242,0.0005822679957033,-0.00033576605355,-0.0005272381304737,0.0335175136314576,0.0462653055174928,0.4251243806694394
2015-03-26 18:23:32.700,0.0315252083732917,-0.011612035316879,-9.73705176263658,0.0004836843704164,-0.0004715505968308,0.0003138657202507,0.0335135332069431,0.0425677281133452,0.425462635881097
2015-03-26 18:23:32.800,0.0311210365639313,-0.005127870749991,-9.755363123564011,-3.310492508655181e-05,-0.0002006951832651,6.133698367922764e-05,0.032887009628764,0.0415652746618968,0.4277894590613537
2015-03-26 18:23:32.900,0.0381717481320099,-0.0005986000038246,-9.766761773142976,-0.0001913922298729,-0.0005325546446742,7.796957683519496e-05,0.0340369281257143,0.0445422438079149,0.4277381651579743
2015-03-26 18:23:33.000,0.0154177722644672,0.0027047823683703,-9.736584247108627,0.0002435502811127,-0.0005462328946202,0.0002227877098867,0.0330949709762987,0.0440341604360142,0.4233243582734687
2015-03-26 18:23:33.100,0.0257793542245084,-0.0071883911646065,-9.74093167232432,-0.000157897644013,-0.0012995352578383,9.694698395003894e-05,0.0329745445047624,0.0427969013835701,0.4247482495361961
2015-03-26 18:23:33.200,0.0191232031622465,-0.0139968548265544,-9.72077936792063,-1.2643271576897192e-05,-0.0011765177765639,-0.0002556985811384,0.0335956764640116,0.0423078941221787,0.4250144552376534
2015-03-26 18:23:33.300,0.0186815731374792,-0.0208372075814375,-9.721968959880314,-0.0009898469914378,-0.0018225951521319,-0.0001003922762659,0.031970756897711,0.0423846646794058,0.4261206867993578
2015-03-26 18:23:33.400,0.0124724440270249,-0.0124857994842541,-9.730859661297933,-0.0015597437989744,-0.0014630959474177,-0.0001366680497306,0.0326163067463538,0.0425084974732216,0.4238175047532106
2015-03-26 18:23:33.500,0.0090192570393428,-0.003600382923356,-9.7397764532284,-0.0009896676393791,-0.0016707298829892,-0.0006324852051098,0.0328100484132827,0.0419934691475325,0.4242993678665192
2015-03-26 18:23:33.600,0.0299098473957017,-0.0153577329189069,-9.75546796920356,-0.000366387805279,-0.0020035889822809,-0.0001113169961617,0.03265393112969,0.0431232169308043,0.4219467729931416
2015-03-26 18:23:33.700,0.0200540038557576,-0.0190902797803498,-9.752382455593954,-0.0011625947109853,-0.0017702578229403,-5.636220405605267e-05,0.0336487521521162,0.0430928764009141,0.4196618441317131
2015-03-26 18:23:33.800,0.0095018905916244,-0.0117068658828676,-9.728301700398667,-0.0009510143178842,-0.0013546886704731,-0.0001030256196799,0.0337963476188958,0.0410796557345802,0.420651536157534
2015-03-26 18:23:33.900,0.0035934106668645,-0.0054899057026351,-9.73052781400374,-0.0004369662809961,-0.0016921994004025,0.0003865306627386,0.0331925787322312,0.0420123170328658,0.4217654456183901
2015-03-26 18:23:34.000,-0.0064525823721416,-0.0102123275549962,-9.709423250545616,-0.0012347474510393,-0.0015896604251459,9.336138107632856e-05,0.0317288689422711,0.0424507466344016,0.4226327765350188
2015-03-26 18:23:34.100,0.0047476605227437,-0.0026561722814985,-9.694187398588406,-0.0014670190659292,-0.0014008328786746,0.0001030509363993,0.0341445888017683,0.0431303843790611,0.4229180613156579
2015-03-26 18:23:34.200,0.0020420633851469,-0.0059742239691463,-9.67733022062811,-0.0003039503721968,-0.0010535369065199,-0.0002991685101066,0.0343336240753467,0.0430558945120656,0.4236198616433338
2015-03-26 18:23:34.300,0.0035260014265068,-0.020507594107353,-9.691248049495869,-0.0005683953322557,-0.0013578055477321,-0.0002575217562607,0.0315116767175584,0.0427943829114856,0.4251637758688152
2015-03-26 18:23:34.400,-0.0140615728863717,-0.0052094494733683,-9.719367118873178,-0.0004869361483808,-0.000673456839024,-0.0002373085368458,0.0336775682420455,0.0466263321462485,0.4248903391606267
2015-03-26 18:23:34.500,0.0062010534996169,-0.0143260872711172,-9.712341614753193,4.439434648050512e-05,-0.0010848781759321,0.0005254566492622,0.0352661155734468,0.0450528860924535,0.4247530310275028
2015-03-26 18:23:34.600,0.018110966878659,-0.0243096855023198,-9.713544035130807,-7.585182942765861e-05,-0.001703306172218,-0.0002988890059845,0.0344099888430918,0.0445592485822542,0.4247413027608777
2015-03-26 18:23:34.700,0.0074661767198878,-0.0053036187190908,-9.707106850831355,8.723959913553549e-05,-0.0015723010602556,-0.0002673676256952,0.0335636284419595,0.0436260754957265,0.4247418673373775
2015-03-26 18:23:34.800,-0.0001791530350929,0.0184541863837478,-9.697502329896787,-1.3301563642114376e-05,-0.0015191904753766,-3.362444212826747e-05,0.035178762266716,0.0457533790352949,0.4254224418905004
2015-03-26 18:23:34.900,-0.0070923579449481,0.0024888397323055,-9.74834606656017,-0.0006151187616732,-0.0009773703930895,5.0426041958591374e-05,0.0334943568661509,0.0443290457170801,0.4263367317757603
2015-03-26 18:23:35.000,0.0008123121022673,-0.0006390605964754,-9.725088401495777,0.0006662277785086,-0.0005810442732859,0.0007395409273761,0.033481251731462,0.043885966945725,0.4251912590875554
2015-03-26 18:23:35.100,-0.0076069676816242,-0.0233121357339967,-9.710381511988995,0.0007063208924379,0.0001614748404606,0.0001647342155012,0.0332607607355378,0.0415828081583373,0.4247904336382033
2015-03-26 18:23:35.200,-0.0150505222000534,0.0070616126303161,-9.70311643623618,0.0007206609111912,-0.0001512296430247,0.0001820775677376,0.0336001537678334,0.0431910289516361,0.4261448632969745
2015-03-26 18:23:35.300,-0.0083646416165702,0.0049097570312716,-9.695800139885405,0.0004957051975648,-0.0008631899936967,-0.0003450376233994,0.033545133192083,0.042132488255538,0.4266369837508651
2015-03-26 18:23:35.400,-0.0219616273749191,-0.0033190927602857,-9.707840566574957,0.0004952400357643,-0.0010044417744592,0.000366217232422,0.0332506260602951,0.0409722801348841,0.4280495632854769
2015-03-26 18:23:35.500,-0.0285904496720652,-0.0021807459225725,-9.730740493873071,0.0007032886487028,-0.0009416460934997,0.0008351157643737,0.033896004720576,0.0410960665858859,0.4257482116152202
2015-03-26 18:23:35.600,-0.0100664251236205,-0.0051190166928486,-9.733555019874146,0.0002759431515681,-0.000475871912499,0.0003698240628603,0.0333619335071957,0.0422079409353592,0.426161836850442
2015-03-26 18:23:35.700,-0.0169438463107145,-0.0073256344133488,-9.751765147102624,0.0003228140241916,-0.0006540728392684,-0.0004379143686229,0.0328971659293447,0.0406848881908213,0.4273489949401844
2015-03-26 18:23:35.800,-0.0207800761819409,0.0048102322347201,-9.752723643839948,-6.698411087700003e-06,0.0001696526348684,-0.0006816228317569,0.0340570534871462,0.0414576441974913,0.4255105568303601
2015-03-26 18:23:35.900,0.0014497239331307,0.0045375603554389,-9.76056364118551,0.0004401815424851,0.0001730677008327,-0.0002807897160611,0.0331825878364549,0.0418429988645112,0.4254725955306032
2015-03-26 18:23:36.000,0.0154438815184775,0.0009501936035544,-9.747622396248502,0.0005521144906594,0.000782509683787,0.0003872180063164,0.0335407429645574,0.0421314766639317,0.4264041592986577
2015-03-26 18:23:36.100,0.0154118739438315,-0.0057848184153719,-9.734635860200518,0.0004251478985136,0.0009702106777972,0.0003645936608179,0.033168793466701,0.0437727095121373,0.4224092954998842
2015-03-26 18:23:36.200,0.0077993021112566,-0.001949432028596,-9.747091551982546,-8.545050964207292e-05,0.0014253970830449,-0.0003522344146749,0.0335503828863028,0.0427417275315131,0.4231467934981878
2015-03-26 18:23:36.300,0.0005068270736863,0.002917499571335,-9.76612522419232,-4.78086023636183e-05,0.0015762625077327,-0.0002149587357688,0.0319530198607418,0.0423819157383033,0.4251913188215046
2015-03-26 18:23:36.400,-0.0161767830494859,0.004277952528501,-9.769482594937676,0.0002046821881162,0.0006389079967953,2.850870983684854e-05,0.0327213503721656,0.0412025999157257,0.4277956449789238
2015-03-26 18:23:36.500,-0.0145450148019283,-0.0066750610173001,-9.767657871012076,0.0005579130038045,0.0008925999951135,0.0004235724575834,0.0333845742940866,0.0413294708781991,0.4264218001036273
2015-03-26 18:23:36.600,-0.0155661485395544,-0.0162046644054264,-9.75270427346322,0.0007281511185517,0.0016544923369301,-8.43650528175384e-05,0.0333852816005303,0.0428204454590144,0.4235987309647656
2015-03-26 18:23:36.700,-0.0029935671662179,0.0012382969251942,-9.763917731274733,0.000909615194524,0.0022276402685877,0.0005099432616151,0.0327256692789746,0.0416443259911309,0.4284766366991792
2015-03-26 18:23:36.800,0.0024359656753149,-0.0065533437352236,-9.773224059071495,-0.0001224089277764,0.0021754326303175,-0.0003849224346525,0.031921272391478,0.0413269954468865,0.4268388583924569
2015-03-26 18:23:36.900,0.0018302172803649,0.0077751547453122,-9.76896234380717,0.0008974998384182,0.0017850076517456,6.773203637202744e-05,0.032992338631346,0.0441230863300087,0.4270239382744552
2015-03-26 18:23:37.000,0.0091072491677538,-0.0013557289423026,-9.758255528260026,0.0012004129983522,0.0016490971084958,0.000160222645326,0.0328925605136738,0.0426158383308464,0.4247473864361801
2015-03-26 18:23:37.100,0.0063980750667975,-0.0071425407885492,-9.801625297029164,0.0012452474468169,0.0019609442250963,-0.0001074540026212,0.0337669861725989,0.0426715137178956,0.4252344185880667
2015-03-26 18:23:37.200,-0.0008610695482114,0.0011468229669992,-9.79907257099504,0.0006874409657741,0.0021911224734538,-0.0001659880619014,0.0348744314792879,0.0459146838323507,0.4277217643312976
2015-03-26 18:23:37.300,0.0061772604564757,0.0044554513583367,-9.776696191800896,0.0002290288173805,0.0018739382091917,0.0004412655214188,0.0328369591510735,0.0433214265642209,0.427038654278975
2015-03-26 18:23:37.400,0.0207156223132217,-0.0054867112533343,-9.786709599644732,0.0011112383437995,0.0026213521177369,0.0004330347892646,0.0318114919496031,0.04158219726285,0.425897551734843
2015-03-26 18:23:37.500,0.0049962705846395,-0.0097086461318905,-9.78020672231506,0.0010224405577581,0.0022726824779855,-0.0004037136814277,0.0332973974872049,0.042029615852311,0.427087717917146
2015-03-26 18:23:37.600,0.0228912863174362,0.0010816641279576,-9.765998044943869,0.0014103081592308,0.0018257067879467,-6.712636930881273e-05,0.0317791313110879,0.0405272045456315,0.4275487422835439
2015-03-26 18:23:37.700,0.0193825749445121,-0.0139909247143721,-9.766570994946676,0.0009448871056781,0.0019596769633882,0.0001307850918071,0.0315675724620667,0.0410391983176027,0.4261387983951226
2015-03-26 18:23:37.800,0.0191183233020226,-0.0069696855466944,-9.766574609566783,0.0005165532674595,0.0013602781043466,-0.0002389765740067,0.032303973823678,0.0398550105594498,0.4271205141493205
2015-03-26 18:23:37.900,0.0453154620957196,-0.0200137838706877,-9.789275017059689,-2.2096400906521275e-05,0.0021038783794792,0.0003904026964821,0.0314061802000313,0.0411183862391743,0.4268265468926634
2015-03-26 18:23:38.000,0.0472914548443069,-0.0132235576971213,-9.765736928478772,0.0007636649933459,0.0020670678320981,-0.0001421115439409,0.0310829112379145,0.0417181411310362,0.4286533922825593
2015-03-26 18:23:38.100,0.0399519696209807,-0.0213268585948336,-9.74894318416078,7.599273943652055e-05,0.0020226531507589,-0.0004324171712612,0.0315950473146965,0.0401616903349722,0.4266293559868241
2015-03-26 18:23:38.200,0.0395155600227312,-0.0128464729021296,-9.761752254470537,0.0006671056823244,0.0022215611606945,-0.0006144967380848,0.0302136558286871,0.0403400886635902,0.4270468982237176
2015-03-26 18:23:38.300,0.0387399281678796,-0.0067656240457176,-9.76702677871843,0.0002574600845582,0.0011900896877755,0.0002380088674566,0.0317002685322841,0.0422786485278942,0.4254168103523567
2015-03-26 18:23:38.400,0.0505182874805252,-0.0177400986593082,-9.760569692388245,-0.0001875579424398,0.0007143355371208,0.0002476181081224,0.0319253500539683,0.0417685337172334,0.4275209904646175
2015-03-26 18:23:38.500,0.0370869339033831,-0.0184651416068563,-9.784295635105073,-0.001001208835595,0.0009598574207979,-0.0005339580623865,0.0326630115881292,0.0435661593891819,0.4228590260136552
2015-03-26 18:23:38.600,0.0459478593066073,0.0005331837281464,-9.759105494699185,-0.0007172331709637,0.0005959610272273,0.0002754353921776,0.033314139579439,0.046169808661626,0.4278988432365685
2015-03-26 18:23:38.700,0.03735605721606,-0.0015453976024357,-9.764142241222112,-0.0001817869821592,6.342383708660593e-05,-0.0005833223023173,0.0334336805663599,0.0454749468992322,0.4288485163567428
2015-03-26 18:23:38.800,0.0454284710318898,-0.0051521122112518,-9.77364304619451,-0.0003656629967495,-0.0004020832608763,-2.052121066124036e-05,0.0316537987653772,0.0425444830983808,0.4277212091097391
2015-03-26 18:23:38.900,0.0400383791514383,-0.0266396916702047,-9.756839295697466,-0.0003957048312672,-0.0002214209128192,0.0001689794305155,0.0310870797150119,0.0417188581259873,0.4288869188374189
2015-03-26 18:23:39.000,0.0342622827294978,-0.0253092952562522,-9.737936794450372,-0.0004589276256506,-3.072691576902117e-05,0.0002747995515317,0.0310141512759857,0.0430302003146802,0.4265307339508997
2015-03-26 18:23:39.100,0.0311884547896161,-0.009717047203824,-9.722767066849372,-0.0002166929577895,-0.0006949974791212,4.258744381613711e-06,0.0320363398325703,0.043004270211922,0.4256346196102111
2015-03-26 18:23:39.200,0.0151698301416936,-0.0047384003911258,-9.7478257942774,-0.001153252258937,-0.001687567406011,-0.0003291374887957,0.0322060327054584,0.040994454474191,0.4277846350451894
2015-03-26 18:23:39.300,0.025999953369683,-0.0040575628172708,-9.726805012631086,-0.0006984554390161,-0.0016134183191853,-0.0003274186838661,0.0325614128520664,0.0414496585185396,0.4243089854716746
2015-03-26 18:23:39.400,0.0303368503549582,-0.000287613848816,-9.713947003876742,-0.0008886346193055,-0.0010429069819936,-0.000424352421594,0.0327544570772671,0.0418167986103103,0.4256918968104751
2015-03-26 18:23:39.500,0.0218457880631125,-0.009249994324761,-9.69977171689945,-0.000631947641647,-0.0011870639688743,-0.0001113385457054,0.0317782287299272,0.0409681147447134,0.4280026044146311
2015-03-26 18:23:39.600,0.0296400454968158,-0.0011724610143835,-9.734804878937927,-0.0001911338708659,-0.001488230929524,-0.0004486887160033,0.0317098969823451,0.039907098037372,0.4277974102467757
2015-03-26 18:23:39.700,0.0251506030142089,0.000278178213069,-9.727287803541715,-0.0001264595010154,-0.0027856942371213,-0.0007133854011689,0.0335913451521755,0.0421397762974313,0.4289464500383368
2015-03-26 18:23:39.800,0.0339739885857631,-0.0132371453580375,-9.72609575391439,-0.0005645692413179,-0.0028025664812704,0.0004334800438808,0.0336088428135106,0.0458388043156809,0.4293025600708083
2015-03-26 18:23:39.900,-0.0018948860374405,0.0089471347112482,-9.720208511718118,-0.0004347680051965,-0.0023162853532333,0.0008384427636186,0.0314285076382041,0.0424458126231743,0.4293330117311141
2015-03-26 18:23:40.000,0.009392749947884,0.0021324204040337,-9.714652948222176,-0.0004366452339251,-0.0028457976128044,0.0002712657662616,0.033568323709086,0.0430182399335337,0.4286888083888109
2015-03-26 18:23:40.100,0.0160936992087975,-0.0293708879818255,-9.693665781037064,-0.0002590742212392,-0.0033782164733228,0.0002594343136103,0.0329704213509151,0.0417463095005172,0.4277817618166248
2015-03-26 18:23:40.200,0.0075305407397905,-0.0249419766938925,-9.73376978557904,-0.0012026803253586,-0.003134896310373,-1.832313090737688e-05,0.031908041415331,0.0413246889721591,0.4261411059754377
2015-03-26 18:23:40.300,0.013176721715545,0.0004338842191972,-9.725247034438112,-0.0006574586643929,-0.0033000742388497,0.0002100036161836,0.0335319776711557,0.0425712190885021,0.4263892011513986
2015-03-26 18:23:40.400,-0.0188623349193967,0.0090073920234077,-9.7327470187205,-0.0007603714392458,-0.0029648481550916,-3.785442667630016e-05,0.0328911810786525,0.0415658130942744,0.4280224698073043
2015-03-26 18:23:40.500,-0.0023536090979175,-0.0010376484115259,-9.721205523727969,-0.0009874681094797,-0.0037441081964316,0.0001746016812901,0.0324907028553895,0.0411031051422079,0.4291810477900269
2015-03-26 18:23:40.600,-0.0073177328165579,0.0008616193427866,-9.71008594011575,-0.0003378846053467,-0.0027190922408618,0.0003722584852564,0.033765847983292,0.0411805807188448,0.428060069588653
2015-03-26 18:23:40.700,-0.0082040740521447,-0.0125719636363195,-9.722726291838091,-0.0003605876246304,-0.0038763019233155,0.0001672282906484,0.0334311850575379,0.0395728120800372,0.4269358894849936
2015-03-26 18:23:40.800,-0.0102675766985543,-0.011325590801252,-9.72157448264295,-2.609068410646645e-05,-0.003497491988588,0.0004941380995752,0.0331639980472636,0.0403491573249632,0.4273676161868488
2015-03-26 18:23:40.900,-0.0080484181183708,0.0078211053535757,-9.716706289621031,-0.0003151627008831,-0.0027233575060696,0.0003163253780387,0.0320961057682278,0.0412496687580725,0.4268462665742504
2015-03-26 18:23:41.000,-0.0127200957320629,0.003767772152722,-9.702424566203156,0.0006544557377556,-0.0016294090379799,0.0003804734866327,0.0343517523012131,0.0402448712164499,0.4260175160300413
2015-03-26 18:23:41.100,-0.0099304670599568,-0.0077240911592469,-9.687266982473613,0.0002094605749196,-0.0027365806634921,0.0002375288061563,0.0336760536708939,0.0392338157107975,0.4257934849827163
2015-03-26 18:23:41.200,-0.0135704230504787,-0.0101867545060833,-9.691358486931712,0.0001021201047379,-0.0024066206650522,-0.0005804846498984,0.0336979350182286,0.0401196372126242,0.4278531584817872
2015-03-26 18:23:41.300,-0.0200734219462575,-0.0027879792059082,-9.704336661110554,0.0007363262426356,-0.0009510463263361,0.0006170324879094,0.0348289917997427,0.0439752397831835,0.4277764334828959
2015-03-26 18:23:41.400,-0.022696344185537,0.0162697114540461,-9.695122972432308,0.0008956827140061,0.0001944806597549,0.0002401634969341,0.0343336056651624,0.0434971066294421,0.4240693951817116
2015-03-26 18:23:41.500,-0.0145874504209501,0.0197396142094572,-9.715166527531345,0.000338731665823,0.0010980168951468,0.0005506463329672,0.0323088642510448,0.041787683271982,0.4249822924165256
2015-03-26 18:23:41.600,-0.0331687402040476,0.0218200224603312,-9.704249871517678,0.0002872492092229,8.554443094868743e-07,-0.0005176937972755,0.0330218558699637,0.041481599176585,0.4257066213722016
2015-03-26 18:23:41.700,-0.0192382555694747,-0.0007021594379908,-9.71883428664414,0.000897130739776,0.0003913865258705,-0.0002873108553486,0.0345039820291599,0.0410463273975113,0.4257656601366976
2015-03-26 18:23:41.800,-0.0211915094151746,-0.0110565775017014,-9.720323498872594,0.0013632895144245,0.0009802904969001,-0.0004323865839744,0.0369364156710518,0.0439338883757051,0.4292306805089922
2015-03-26 18:23:41.900,-0.0319848199035344,-0.0111029100074609,-9.745924191963809,0.001169492063001,0.0009241741587039,-3.516014904742742e-05,0.0362658858079416,0.0435324196979091,0.4255161170025204
2015-03-26 18:23:42.000,-0.0292479590849473,0.0047207828410721,-9.743116230665288,0.0003548340553619,0.0015469184132661,-0.0002960689296114,0.0345538985361133,0.0429863471135663,0.425943474082556
2015-03-26 18:23:42.100,-0.0216076207273999,-0.0019326892192678,-9.7459078784491,0.0003686078300889,0.0015005723293827,0.0003442770725553,0.0333896633886977,0.0413302640393006,0.4266504729502207
2015-03-26 18:23:42.200,-0.0068560009425026,-0.0053327637467194,-9.7451851822505,0.0009350326723945,0.0011960419153526,0.0007099321143954,0.0328927776274905,0.0402428518571718,0.426667258563161
2015-03-26 18:23:42.300,-0.0090468966440366,-0.007775002828959,-9.751798171352604,0.0003768024146165,0.0005704469074293,0.0002554385727103,0.0340943412839265,0.0401406934662153,0.4260125217716933
2015-03-26 18:23:42.400,-0.0163984259760927,0.0034832977559971,-9.757994945006049,0.000850674951125,0.0007052495978203,0.000681901451315,0.0342732546890361,0.04094644761738,0.4271521639969599
2015-03-26 18:23:42.500,-0.0249888646256806,-0.0071052362053169,-9.75517991532287,0.0002208182654076,0.0016209054496799,-9.309572614317494e-05,0.0348654469782638,0.045471987495611,0.4268092110307458
2015-03-26 18:23:42.600,-0.0066834244172188,0.0015854640206729,-9.747358225328506,0.000620056802632,0.0024938952908276,0.0007532293878055,0.0341396534128803,0.0420802060435258,0.4259582983595585
2015-03-26 18:23:42.700,0.0070581487777657,-0.0007974645667376,-9.75994637175386,0.0007694389618087,0.002028148443226,0.000387614554182,0.0330218365865564,0.0414812033943527,0.4257082030575706
2015-03-26 18:23:42.800,0.0142774176624065,-0.0102517825390742,-9.77737216386925,0.0011206152091414,0.0020618138360028,-0.0006942936198741,0.0336111222888045,0.0394967074943222,0.427172051247697
2015-03-26 18:23:42.900,0.0084959072091606,-0.0078906662516792,-9.75816737258974,0.000261794383555,0.002478416714896,-0.0006721251843015,0.0326113545921086,0.0399672178055879,0.4296764715732153
2015-03-26 18:23:43.000,0.0067081415566218,-0.0136832685976177,-9.759616195938197,0.0006651430438694,0.0024827068733003,0.0001440976666383,0.033426350387116,0.0404543114083407,0.4276039104637768
2015-03-26 18:23:43.100,0.0133258120118826,-0.0116313679115191,-9.769243837453088,0.000861693815283,0.0023040441766454,-0.0001108108055074,0.0325701983960792,0.0404015297411784,0.4280424485382972
2015-03-26 18:23:43.200,0.0114192801833472,-0.0249279854062255,-9.75237063223624,0.0005624224130047,0.0030910298138683,-0.0003330811788883,0.0331403209798322,0.0412275219551633,0.4271125880335666
2015-03-26 18:23:43.300,-0.004715588781197,-0.0067747571334685,-9.736063880628734,0.0006006561055358,0.0025007423074511,-0.000586081535668,0.0324221049670422,0.0419739330856667,0.4266076556776196
2015-03-26 18:23:43.400,0.0050158425147233,-0.0115582400030543,-9.740822585653884,-0.000111810141984,0.0031252561066223,-0.0004323281408481,0.0320994435883541,0.0421325494797741,0.4279819160791879
2015-03-26 18:23:43.500,0.0226622061566201,-0.0115944494937549,-9.761054442764268,0.0006321078327037,0.0024866900231875,-0.0003447499143435,0.0336544163383077,0.0427588628934722,0.4284756592245156
2015-03-26 18:23:43.600,0.0174911585991188,-0.0157986233542929,-9.771287832942903,-0.0003872283872493,0.0020797600392912,0.0004409874272633,0.0335908769596283,0.0431894808045055,0.4256830800839095
2015-03-26 18:23:43.700,0.0086034228542109,-0.0154696042304807,-9.744400743970578,-0.0003888093015972,0.0031225625055739,0.0003935855859349,0.032181951133791,0.0418726348899924,0.4275319744280272
2015-03-26 18:23:43.800,0.0179288164596351,-0.0004814061603631,-9.765331573479711,0.0002395912482267,0.0029435523752984,0.0001511168371343,0.0317903929197548,0.041411029190973,0.4291555156981282
2015-03-26 18:23:43.900,0.0196702716362201,-0.0013071874524276,-9.757461927905146,0.0002139437198848,0.0026773445270183,0.0002511829123307,0.0317820865931268,0.0400863439969905,0.4273398517125275
2015-03-26 18:23:44.000,0.018569585749355,-0.0109187383231903,-9.76138632055538,-0.000364860465071,0.0022934283824503,0.0001632287850243,0.0319713135163879,0.0415028317289686,0.4252191167205553
2015-03-26 18:23:44.100,0.0347632591600801,-0.0104189539317455,-9.780112209202724,-0.0003876892816391,0.0020861124061206,-0.0003075809032564,0.0328777072715559,0.0411224464519831,0.4268782720522688
2015-03-26 18:23:44.200,0.0196313902897007,-0.0104128163159361,-9.787020666767203,-0.0007052789280124,0.002110854917579,-0.0004431564179813,0.0335596375180272,0.0431841064689701,0.4240580487187286
2015-03-26 18:23:44.300,0.014106588875934,-0.0130544228140741,-9.77338653957301,0.0002842426664056,0.0018455693439854,0.0004499973421859,0.0327262450503626,0.0431353772466765,0.4256544837756146
2015-03-26 18:23:44.400,0.0363707102502932,-0.0215869294757448,-9.785579363823906,-0.000358473645229,0.0026476589915184,0.0003745187815356,0.0321284375509336,0.0423047832260917,0.4251961987348491
2015-03-26 18:23:44.500,0.0463837290157285,-0.0258754855536197,-9.76439840768134,-0.0004126912956446,0.0012358696942882,0.0003848451773911,0.0312759201356752,0.0431348920375302,0.4267689997336091
2015-03-26 18:23:44.600,0.0379266481560804,-0.0203740991483173,-9.75266853042428,-0.0002990300566005,0.0006298433076514,-0.0005957742000905,0.0312986449410709,0.0426977204901697,0.4274779044669093
2015-03-26 18:23:44.700,0.0539755057588905,-0.007283916132329,-9.744952498693236,-0.0004940750443179,-0.0001091731499018,-0.000802416353992,0.0321504312520369,0.0427496686418273,0.4268073591374085
2015-03-26 18:23:44.800,0.0415749456440454,0.003999113889032,-9.76855885148192,-0.0003307117415747,0.0004271783039114,-0.0006876615633967,0.0308431751513694,0.0435488364052343,0.4272065141567056
2015-03-26 18:23:44.900,0.044320111996581,-0.0028695790793229,-9.768876053797213,-0.0006345947873488,0.0003940330249746,0.0004506418542693,0.031014365238268,0.0440799000667229,0.4232607995911823
2015-03-26 18:23:45.000,0.0331241524460251,0.0076731551611027,-9.747964914370291,-0.0014741092973641,-0.0002406600940587,0.0009664828171245,0.0305812368587657,0.0425620628305267,0.4260701452807408
2015-03-26 18:23:45.100,0.0406369836612418,0.0001382196480434,-9.759487772492294,-0.0014429630367359,-0.0004270157434782,-0.0003209166651413,0.0321824366901308,0.0418728557279793,0.4275291091889829
2015-03-26 18:23:45.200,0.0487564312060266,0.0047308217067318,-9.743814447190235,-0.0004918066964075,-0.0006050924660741,-0.0006160645591235,0.0322663237672081,0.0407309288081554,0.4261746472754079
2015-03-26 18:23:45.300,0.0431636775093337,-0.0032451763899551,-9.756296347785488,-0.0009253691945324,-0.0006945874510929,5.631710834264538e-05,0.0312634399097007,0.0413684808246592,0.4242727413336568
2015-03-26 18:23:45.400,0.0334257307010521,0.0009989731657521,-9.743222262953514,-0.0015744985386478,-0.001279383773885,-6.508769971928734e-05,0.0315659963042384,0.041480076902564,0.4265954712636656
2015-03-26 18:23:45.500,0.030297742229572,0.0050685301381975,-9.755548211071147,-0.001180217271155,-0.0015786283922824,-0.000938828647503,0.031234229796662,0.0416371562135821,0.4275077562677082
2015-03-26 18:23:45.600,0.0336073757725346,0.0025199437615846,-9.731949750189797,-0.0007229185248008,-0.0012423009077759,-0.0009851023943785,0.0307972776932377,0.0411684041871341,0.426813860042928
2015-03-26 18:23:45.700,0.0223845516603356,-0.006462412073114,-9.760091465525852,-6.197167609476828e-06,-0.0023705743234797,-0.0001187723540144,0.0319942362388808,0.0410653960254485,0.4259276646082567
2015-03-26 18:23:45.800,0.0243595415996678,0.0054707986839128,-9.742631351912358,-0.0007357507620526,-0.0023816000305245,0.0002024617186264,0.0321873945373107,0.0405501906022276,0.4264119465919423
2015-03-26 18:23:45.900,0.0349067491643793,0.0106587842108694,-9.75845481817309,0.0001015368213693,-0.0030075751929891,0.0009260687855751,0.0338761533029288,0.0428573052371374,0.4266271528450704
2015-03-26 18:23:46.000,0.0342561788169542,0.0032023429446614,-9.752329808423978,-0.0006320076938737,-0.0034603222043998,-0.0003611621333253,0.0321730535880357,0.0414298431948279,0.4266173708327368
2015-03-26 18:23:46.100,0.0277601425270053,-0.0137203429753578,-9.726435076110198,-0.0008386164871756,-0.0040047194955136,0.0001149481173658,0.0321692388138655,0.0409883712597058,0.4259343071800001
2015-03-26 18:23:46.200,0.0191148521007357,-0.008740568486767,-9.731501888495677,-0.0006011416305555,-0.0038871529507861,-0.0001577814108888,0.0313320376307707,0.0415474404919072,0.4235783309568137
2015-03-26 18:23:46.300,0.0278506080014236,-0.0066707797887479,-9.72987984070126,-0.0007489652056442,-0.0038386687631107,0.0006038787730875,0.0329824139357561,0.0460532164599282,0.4241944173325674
2015-03-26 18:23:46.400,0.0218986452037532,0.0036049712240158,-9.71998982624054,-0.0004289140050367,-0.0037053160793507,0.0011276720957397,0.0337515093381854,0.0435513930584121,0.425447678130858
2015-03-26 18:23:46.500,0.014911237933524,-0.0095074107379441,-9.723395274617207,7.929140515384913e-05,-0.0039263958650151,0.0012541842258418,0.0362965211902735,0.0450283037215935,0.4243248303687579
2015-03-26 18:23:46.600,0.0150022685874466,-0.0118577863158911,-9.70953750250601,-0.0003544225423129,-0.003745778332457,5.752400539535618e-05,0.0338082736644326,0.0428460817487892,0.4231523707969571
2015-03-26 18:23:46.700,0.0054373079101703,0.0017961213363524,-9.704667773830211,-0.0004144096547414,-0.0028024937065978,0.0004347757882248,0.0332378730027956,0.0415788363553565,0.4236327874713949
2015-03-26 18:23:46.800,-0.0041404102639331,-0.0001230121568568,-9.721432749120169,0.0007085377464659,-0.0024189547434185,0.0007682024720368,0.0331685477530859,0.0409586382577308,0.4238822088977703
2015-03-26 18:23:46.900,0.0108640179143644,0.0121356645694021,-9.733699671146,0.0003651475395654,-0.002228441952176,0.0002976399823774,0.0363977114232888,0.0452125963541955,0.4252469777971266
2015-03-26 18:23:47.000,-0.0003791313663414,-0.0047874675829934,-9.741455294206654,0.0003498939548237,-0.0025243849117586,-0.0003239155802603,0.035459538258821,0.0449790714126828,0.4256856478824233
2015-03-26 18:23:47.100,-0.0173009557904378,0.0041653592303775,-9.715933115534003,0.0002373987167436,-0.0028017344410711,0.0004104854164409,0.0342540567136478,0.0433163175062882,0.4243100993737423
2015-03-26 18:23:47.200,-0.0181228250805116,0.0031763083993218,-9.71828506302572,0.000557625589657,-0.0019815672854419,7.410924410040595e-05,0.0333196647303088,0.0426421139248138,0.4245337875168374
2015-03-26 18:23:47.300,-0.012150388247189,0.0203678840302562,-9.709560334313291,0.0008723051285694,-0.0012815203503999,0.0001853664598084,0.034102314100244,0.0420740178947353,0.4241110330074742
2015-03-26 18:23:47.400,-0.0223955435045494,0.0252894702133368,-9.700537167291868,0.0002401034188114,-0.0010023005559096,-0.0003253834443283,0.0346544919308881,0.0437791124296382,0.4231537618798492
2015-03-26 18:23:47.500,-0.0075354462301076,-0.0141581148798203,-9.723370479391178,0.001024260393241,-0.0007768174103321,0.0005584859232274,0.0337298559344722,0.0422243157231261,0.4229379634292763
2015-03-26 18:23:47.600,-0.0142207487711117,-0.0183382038094434,-9.707645798404164,0.0003918947530687,-0.0002879620345621,-0.0001816201247447,0.0341721316108667,0.0418118868231714,0.4229613537885009
2015-03-26 18:23:47.700,-0.009020571052173,-0.0081166583051657,-9.689824920040358,-0.0001437801943469,0.0001637013143241,-0.0004887921848743,0.0348985015488306,0.0443221737384332,0.4229115104154576
2015-03-26 18:23:47.800,-0.0154754503863838,-0.0026700538533772,-9.69694292209562,-0.0004621673456763,0.0005922323098553,-0.0005176115685732,0.0361051383626417,0.0433381946136417,0.4215890276073188
2015-03-26 18:23:47.900,-0.0125476041709283,-0.0025098052175268,-9.729740680173826,0.0003732357163884,0.0004514991112941,0.000404039665619,0.0344113842542853,0.0423538841157369,0.4224928542839589
2015-03-26 18:23:48.000,0.00347842329888,-0.0015216283691205,-9.729281186889892,0.0008453208151507,0.0002069622195557,0.0002168723624501,0.034295199862978,0.0419998971453769,0.4250466449851106
2015-03-26 18:23:48.100,-0.0168365798580523,0.0062246541688616,-9.741244329187884,0.0004673687883354,0.0001099403930641,0.0001070163296161,0.0347174722148714,0.0437894081438745,0.4263986189634017
2015-03-26 18:23:48.200,-0.0199897447724671,0.0063272565812398,-9.741854282419396,0.0001608378042334,0.0006303198637851,-0.0006023341460796,0.0345610761243273,0.0425464311357435,0.425968982578482
2015-03-26 18:23:48.300,-0.0153233089476842,0.0160779918309812,-9.720946077064005,0.0004291448675734,0.0011593858321448,-0.0004536506997451,0.036249314327239,0.0457350080801606,0.4270845929161094
2015-03-26 18:23:48.400,-0.017748239472666,0.018344176535447,-9.74930728213319,-0.0001580413551297,0.000437415104758,-0.0004214725505543,0.0368108777879641,0.047000908609729,0.4261385526882406
2015-03-26 18:23:48.500,-0.0140802366961402,0.0143816715729994,-9.739690772830722,-0.0004398120095204,0.0004633487067141,-0.000102904148401,0.0355453059295324,0.0456020113273071,0.4263734958111613
2015-03-26 18:23:48.600,-0.0275123210200501,-0.0190662738715679,-9.752597707308611,2.8103187801733293e-05,0.0009888393521802,0.0004119354569166,0.0336496616746388,0.0418761923964641,0.4273503421755062
2015-03-26 18:23:48.700,-0.028181247606776,-0.0038512654698769,-9.760194998557258,0.0002711832660057,0.0009716536101652,5.343184822866843e-05,0.0336679973999239,0.0418789251020329,0.4282749436645477
2015-03-26 18:23:48.800,-0.0215569102008005,-0.0046834119739429,-9.737459845829797,0.0006849137630691,0.0010672924075929,1.6367645214408988e-05,0.0333280280832564,0.0411525554308529,0.4278198571500588
2015-03-26 18:23:48.900,-0.0036361554099388,-0.0011373216831306,-9.720617371529674,-0.0002068878183295,0.0025308725892897,-0.0001792296933764,0.0326333237607523,0.0410204224263527,0.427571685255817
2015-03-26 18:23:49.000,-0.0096773752931157,-0.0017561377191476,-9.748299973645716,0.0005043332606337,0.0029451912079488,-0.0006341166970655,0.0332321251182391,0.0400868819674082,0.426228286952924
2015-03-26 18:23:49.100,-0.0054646047081588,-0.0128192152562803,-9.748846123515746,0.0006752018471481,0.00300295906841,0.0002461114282919,0.0332546775644191,0.0405315626718029,0.4278367680188034
2015-03-26 18:23:49.200,0.0135266555518814,-0.0126948787217314,-9.725711147050436,-0.0002637137330431,0.0029151381482525,0.0008864004544714,0.0331757800086188,0.0407920914546139,0.4285227566036701
2015-03-26 18:23:49.300,0.0161553074594073,-0.0045445782520364,-9.759648821128147,-0.0001154528661296,0.0030402342371554,-0.0005292288730198,0.0323471212994134,0.041793981350169,0.4270810054356462
2015-03-26 18:23:49.400,0.0058997204193195,-0.0189358648749954,-9.745942869216382,0.0001072928651366,0.0032280686147833,0.0004440427979959,0.0326238007600098,0.0405778609357581,0.4266617946378069
2015-03-26 18:23:49.500,-0.0029066337547764,-0.0143430171712685,-9.7683027420496,0.0003248516914064,0.0042704716795566,-0.0004150335763901,0.0337871403166693,0.0435572865603972,0.4273061167053334
2015-03-26 18:23:49.600,0.0046980413145343,0.0108813793852645,-9.759647773602298,-0.0006867096975792,0.003468826868019,-0.0009789670912494,0.0328577569470988,0.0420012935000568,0.4268600997288958
2015-03-26 18:23:49.700,0.0061755439831922,-0.0004848023115837,-9.75489392116662,-0.000373483568787,0.0029172458680979,-0.0005185012617687,0.0331582870726576,0.0413979746672945,0.4238755938337779
2015-03-26 18:23:49.800,0.0026387695855327,0.0080687481536776,-9.746486255853709,0.0003587411232582,0.0036422286744317,-0.0004774885829736,0.0327060927837283,0.0412001154203906,0.4271097681261387
2015-03-26 18:23:49.900,0.0103765219697671,0.0016620413125086,-9.757142654374316,0.0002110708562599,0.0045739545353726,-0.0008383682186339,0.0311778589305595,0.0410191779896488,0.428457271757835
2015-03-26 18:23:50.000,0.0383731235566719,-0.0079577083924565,-9.758389129610435,-0.0001379813799466,0.0032656608689524,0.000358559215223,0.0327746718621462,0.0427021251615973,0.4277616421693934
2015-03-26 18:23:50.100,0.0169929814589228,-0.0050062250501023,-9.762730495408473,-0.0003090549488958,0.0028228807558333,0.0004869841831202,0.0322226209300915,0.0418794460370633,0.4296192713731995
2015-03-26 18:23:50.200,0.0274928738919816,-0.0177425696585325,-9.768083880457263,0.0002533592519576,0.0032231131205146,-0.0004462738495943,0.0320475742715965,0.0419565364204368,0.4296113574727768
2015-03-26 18:23:50.300,0.023098791323977,0.0023218183308707,-9.768343829080946,0.0002087193376171,0.0026590628837915,3.2329544465298125e-05,0.0318494986358688,0.0429117802914452,0.4293452730736896
2015-03-26 18:23:50.400,0.0173724348094752,-0.0039178959488121,-9.794607744758505,0.0004218478230469,0.0023519402463027,0.0003473635494227,0.0330561877904375,0.0419283050658582,0.4280197852102592
2015-03-26 18:23:50.500,0.0402972340638205,0.0149046714223847,-9.795520581944054,0.000120144845835,0.0024692915958791,0.0002774157404502,0.0327025606028203,0.0411996359212404,0.4268732752706118
2015-03-26 18:23:50.600,0.0615889320867263,0.0139502981635228,-9.76934594932698,0.0001858427639153,0.0022361246643108,0.0003180686415703,0.0308795786959179,0.0417904893340033,0.4272632559539876
2015-03-26 18:23:50.700,0.0312844708562748,-0.011739588035318,-9.747401197422244,-0.0003896783586761,0.0021659084405726,8.229785597689654e-05,0.0318369344268892,0.0439593138730786,0.4253758221788002
2015-03-26 18:23:50.800,0.0393046048962759,-0.0346719935543973,-9.744755487265346,-2.458853989795912e-05,0.0017473168603369,0.0006504389832749,0.0321343714549391,0.042728554971698,0.4261286570531492
2015-03-26 18:23:50.900,0.0593182482094307,-0.0124749821528638,-9.791605372392173,-1.1577328820939254e-05,0.0004071573387165,0.0005958815615858,0.0315735020705154,0.0410369226959519,0.4266099165032146
2015-03-26 18:23:51.000,0.0325021857674885,-0.0071387744585397,-9.767540173441388,-0.0001211574243783,0.0001528105948602,-2.0679440311566785e-05,0.0309119390341767,0.0409135993799066,0.4279824566813119
2015-03-26 18:23:51.100,0.0395092967425859,0.0026376118742265,-9.78812829100062,-0.0003685356987629,0.0009976744555023,0.0005738631176107,0.0316714759348148,0.0431556741962131,0.424931789310456
2015-03-26 18:23:51.200,0.0473570897793786,-0.0117908989681251,-9.786980636414896,0.0002387744894346,0.0003403863217746,0.0009877695886335,0.0320217642102368,0.0425604996671652,0.42449794838771
2015-03-26 18:23:51.300,0.0474215729167762,-0.0016124822879041,-9.781010340442728,0.0001633813944745,-0.0001142460901616,-1.9188028464614807e-05,0.0307924053975063,0.0407262352673251,0.4261363627526917
2015-03-26 18:23:51.400,0.0472857828847321,-0.0058280018779548,-9.768517825617838,-0.0001779798784812,-0.0015965081112499,-2.697775884418707e-06,0.0303782377150091,0.0402611820353222,0.4265996478875654
2015-03-26 18:23:51.500,0.0465844172933345,-0.0127131024961793,-9.75927239265536,0.0002360870936614,-0.0020809517086109,-5.714351392353537e-05,0.0290795397251065,0.0415032582487524,0.4279118701720903
2015-03-26 18:23:51.600,0.0381259837818915,-0.0135886702930487,-9.771476744802104,-0.0012778665359025,-0.0025529403978791,-0.0003269810318329,0.0299175766699397,0.0419940580921994,0.426997374528254
2015-03-26 18:23:51.700,0.0402737475187131,0.0017142723728007,-9.74250113560758,-0.0011215347998889,-0.002684712758418,-0.0005509373303651,0.0308930086296007,0.041792789476365,0.4279595443580338
2015-03-26 18:23:51.800,0.0252164670881482,-0.0115058684313556,-9.738907186925768,-0.0006140103871909,-0.00319597198851,0.0005765191490761,0.0328858939665641,0.04156504462337,0.4277949129058677
2015-03-26 18:23:51.900,0.0339676306297294,-0.0079407590516031,-9.727161909075798,-0.000469837375005,-0.0036441062629812,0.0010794431768262,0.0327164880438864,0.041202059055564,0.4275656701547083
2015-03-26 18:23:52.000,0.0266671536701801,-0.0009375610245634,-9.74364731903396,0.0003727108163424,-0.0033919632154538,0.0004514055679749,0.0332184708901764,0.0414079898091393,0.426878746214508
2015-03-26 18:23:52.100,0.010044736983523,-0.0039738819841598,-9.74212545021646,-0.0003472477055884,-0.0031319977433991,-0.000168688320757,0.0329199094530586,0.0417380707663815,0.4252386923888231
2015-03-26 18:23:52.200,0.0343195965633168,-0.0101657071002995,-9.758850742671957,-0.000586201574159,-0.0044971149974104,0.0002024947036412,0.0320033487907888,0.0415080102275583,0.4268393372579698
2015-03-26 18:23:52.300,0.0063818684049758,-0.0095615276554632,-9.74408490920406,0.0001825645002488,-0.0042412273399647,0.0007689856408059,0.0317307965828956,0.0427245679952904,0.4274927451541363
2015-03-26 18:23:52.400,-0.0032691030684909,0.0001287896095518,-9.724699838235033,-0.0003043516718067,-0.0044229286476926,0.0004655553697968,0.032232403826347,0.0429306807802682,0.4268098184657035
2015-03-26 18:23:52.500,0.0152629026334115,-0.0068859172433397,-9.700139438587888,-0.0004792480316069,-0.0043532488641588,0.0006604765630905,0.0344999154836292,0.0445740201747896,0.4293793505880884
2015-03-26 18:23:52.600,0.0097433893643638,-0.0043150239631715,-9.72322240792052,-0.0006191070852202,-0.0032530346402948,7.056814029301476e-05,0.0329225296389499,0.0415711011585135,0.429649458288113
2015-03-26 18:23:52.700,0.0034527156661131,-0.0041674133840281,-9.722974180022236,-0.000355651562799,-0.003779195871217,0.0003948379989065,0.0334062436730819,0.041773955819019,0.4280345419199478
2015-03-26 18:23:52.800,0.0076912177889226,-0.0062957091874974,-9.70162168926129,-0.0009055063626024,-0.0038001044309524,-0.0007510305613871,0.0332967575584432,0.0411474688619699,0.4261958911339671
2015-03-26 18:23:52.900,0.0095981299239488,0.0040189349563592,-9.713750360088197,-0.0004081311746439,-0.0034671762838654,-9.511756918200238e-05,0.0352038830086098,0.0451484137363324,0.4305384364598913
2015-03-26 18:23:53.000,0.0128618756836492,0.0082162728952294,-9.71854792107412,0.0002303813342782,-0.0031321211027656,0.0005695222277718,0.0353350156369572,0.0428586960781532,0.4259772100651959
2015-03-26 18:23:53.100,-0.012237337796591,-0.0113151748538612,-9.702183697855556,-0.0007642289728442,-0.0034191750771536,0.0007256002351688,0.033117520026964,0.0412237972144261,0.4259549295832951
2015-03-26 18:23:53.200,-0.0113960221084461,-0.00223566934802,-9.7233644653346,-0.0008890159026876,-0.0029810003659737,0.000543590232733,0.0326903267184834,0.0403154357961222,0.4252722584079084
2015-03-26 18:23:53.300,-0.0236438841006499,0.0094376126786293,-9.732391398501004,-0.000613943954297,-0.0028251433765644,0.0001247828042199,0.0330765441126595,0.0392849837145959,0.4262417512966946
2015-03-26 18:23:53.400,-0.0432887696703905,0.0040215691884319,-9.725352579153771,-0.0001640766404683,-0.0014031885218466,-0.0006980293848616,0.0321273719351019,0.0408139924721073,0.428021135103006
2015-03-26 18:23:53.500,-0.0095099935145574,-0.0077887677587886,-9.734540816915684,0.0001506487388212,-0.001271765110268,-0.0002211006541558,0.0322884069351745,0.041175615829882,0.4277842856757213
2015-03-26 18:23:53.600,-0.0020590041555061,-0.0071768034129419,-9.686500111083568,-0.0005291542874512,-0.0008081144640419,-9.363302213359832e-05,0.0352351342558105,0.0417928098679073,0.4241502324115064
2015-03-26 18:23:53.700,-0.0173620815047639,0.0023835236143869,-9.680190020972136,-0.0004378261042144,-0.0009935426297659,0.0005932164102861,0.0352479640357883,0.0411862966800785,0.4285669776728126
2015-03-26 18:23:53.800,-0.0237400789749028,-0.0029452498213512,-9.727853213991429,-0.0006233336726952,-0.0011620219150285,0.0004054758505194,0.0338812980935259,0.0400440154523183,0.4283280481933774
2015-03-26 18:23:53.900,-0.0206913992045845,-0.0143836079097452,-9.719837571124463,-0.0007710857975158,-0.0006062545418151,0.0004413000007802,0.0337484843280987,0.0402955069536512,0.426231863543592
2015-03-26 18:23:54.000,-0.0210605952524933,-0.0146708966065817,-9.704275611748796,-0.0003874457951042,-0.0003436599489183,0.0002917725689916,0.0322888596988154,0.0411756043757837,0.4277822532517902
2015-03-26 18:23:54.100,-0.0397424375727393,-0.0146818528773647,-9.71023543387386,0.0001171380129566,-0.0009837724628488,0.000520082574887,0.0355885470894015,0.0429623647878253,0.4257482609083088
2015-03-26 18:23:54.200,-0.0311809860791317,0.000349482386894,-9.719495594836069,-0.0001178523325041,5.760204965906697e-05,-0.000584739147812,0.0342913571191478,0.0419992051531271,0.4248115339450546
2015-03-26 18:23:54.300,-0.0138473842670169,0.0028815051736877,-9.733191977835023,1.5962369714473545e-05,-0.0003182976650167,-0.0001229017312363,0.0336835006415122,0.0420491507274781,0.4247925446821479
2015-03-26 18:23:54.400,-0.0336917890407767,0.0026459931670728,-9.715560877659309,-6.96377980056088e-05,0.0007983001567608,-0.0001983806380715,0.0337390900881058,0.0422257530060046,0.4233995909912457
2015-03-26 18:23:54.500,-0.0325975625238996,-0.0155958060515701,-9.739388900363217,0.0004206425839304,0.0021296605907212,-0.0001706580840493,0.0358063256474174,0.0452924378461734,0.4250162280402689
2015-03-26 18:23:54.600,-0.0220661607173723,0.0097600040310648,-9.737739886436264,0.0001894150191936,0.0017139679480288,-0.0003817874497358,0.0351716366886413,0.0422110485568478,0.4215773138625353
2015-03-26 18:23:54.700,-0.0117299784597642,0.0134214441895554,-9.736011656731128,4.251023017953045e-05,0.0012990254670765,0.0002271462224194,0.0347567684513671,0.0421990982461513,0.4222727822591955
2015-03-26 18:23:54.800,-0.0159912664642436,-0.0002911734522633,-9.741622665720564,0.0001149119879353,0.0014551071101658,-0.0007163031823337,0.0350511757287283,0.0418684585815043,0.4236799186923562
2015-03-26 18:23:54.900,-0.0137743929073039,0.0064790159649259,-9.759992398894688,2.275178414749112e-05,0.0024978608874882,-0.0001152761934008,0.0340444446863899,0.0420643264190341,0.4210933310370468
2015-03-26 18:23:55.000,-0.0231625880524744,0.0043128508546381,-9.751519207485345,3.805558608133992e-05,0.0023654976750468,0.0003956937099663,0.0339250850987922,0.0427590619996885,0.4201422296431274
2015-03-26 18:23:55.100,-0.0140423739569442,-0.0018684726958378,-9.75910694406351,0.0002170516746834,0.003637867546078,0.0001815669867909,0.0340621241990332,0.0429493231029369,0.4229207666181169
2015-03-26 18:23:55.200,-0.0231112189581264,-0.0152189741847938,-9.759284819399364,0.000831168484472,0.0029237911909765,-0.0004609847079885,0.0338866738727682,0.0410942972039454,0.4252861867059421
2015-03-26 18:23:55.300,-0.0115500774866084,0.0023572521943448,-9.750713133970734,0.0001948329042672,0.0029447931430672,-0.0007812671062615,0.0319581673012971,0.0419415287868422,0.4249713557237278
2015-03-26 18:23:55.400,0.0005159194605785,0.0022289532173254,-9.751167138866975,0.0006219355387799,0.0028317825601936,-5.601710775123444e-05,0.0326758099527271,0.0411952796527189,0.4254791692432903
2015-03-26 18:23:55.500,0.0150866977195593,0.0002160256776329,-9.753595992602392,0.0001299978793889,0.0027967620206293,-0.0003094942724328,0.0338246351660422,0.0450535757474498,0.4263303622307414
2015-03-26 18:23:55.600,0.011219238265904,-0.0112015346004641,-9.736407530248467,0.0006661687923138,0.003119689282552,-0.000392961204455,0.0333560304273501,0.0422071573303747,0.4259370847627873
2015-03-26 18:23:55.700,0.0106816208415549,-0.0057213918120827,-9.76588056703128,-0.0001295594204464,0.0034721323574164,-0.0002276030473818,0.03310812327026,0.040781157196558,0.4250448971414211
2015-03-26 18:23:55.800,0.0205434812781268,0.0070298405547192,-9.782137718351477,0.0012208169041395,0.003232257761697,-0.0002473321152219,0.0318059361513878,0.0406992386217207,0.4247753879594668
2015-03-26 18:23:55.900,0.0157835616824419,0.0125671787994181,-9.765290662881949,0.0004142259643315,0.0040330542531114,-9.463869156526072e-05,0.0331676496326692,0.0418406637708038,0.424784270464032
2015-03-26 18:23:56.000,0.0124272863929613,-0.009271014801787,-9.783355533104036,0.0002022363240032,0.0037479866610909,-0.0001290489137312,0.0337386997857745,0.0422257722301137,0.4233865600481993
2015-03-26 18:23:56.100,0.0251969299399447,-0.0123859500890726,-9.775094046715536,6.544927068152867e-05,0.0021508488784281,-0.0007668921773078,0.0324424063772882,0.0421465212691053,0.4243076729723075
2015-03-26 18:23:56.200,0.0521462163430962,-0.0084487910181327,-9.779203253766347,0.0001773872354622,0.0030375455840659,0.0002508858605694,0.0310282981993869,0.0412590020031448,0.4261417681712854
2015-03-26 18:23:56.300,0.0383314913210144,-0.0059824579830148,-9.772992620524498,0.0001132228450255,0.0026964938293138,-2.166459399631012e-05,0.0332317318427806,0.0424632896494437,0.4238301414131876
2015-03-26 18:23:56.400,0.0235123326020371,-0.0185142598067386,-9.771114085888518,-3.308078462453057e-05,0.0026451824783747,0.0003145286138762,0.0335872165854518,0.0418555416867654,0.4243443240325791
2015-03-26 18:23:56.500,0.0292432640948959,-0.0213143482755088,-9.778105358007444,-0.0002433283584844,0.0022388857856092,0.0001508506670015,0.0326237435111642,0.0425250309180001,0.4247449352676332
2015-03-26 18:23:56.600,0.0517995528075164,-0.0083681757712009,-9.77173015045982,-0.0003330671174043,0.0013660626877429,-0.000361290159129,0.032104304132685,0.0422992460858614,0.4240390172378206
2015-03-26 18:23:56.700,0.0538520602491446,-0.0135178445187745,-9.78427987269048,-4.485188063247706e-06,0.0007595207227512,-0.001231138880867,0.0312445816319858,0.0418064682798791,0.4237979281243404
2015-03-26 18:23:56.800,0.0430607315851,-0.0100696579243255,-9.75409776448176,-0.0002191425615236,0.0021610207299991,0.0002168725078525,0.0322704614433408,0.043104519012846,0.4244865772288611
2015-03-26 18:23:56.900,0.0303010991059169,0.0033093440653936,-9.786000343419447,0.0002144759492968,0.0016063892420776,0.0004646461270981,0.0329331105335809,0.0441133437227605,0.4240137615937908
2015-03-26 18:23:57.000,0.0433011100007913,-0.010237561829041,-9.758219082645558,-0.000499792478511,0.0003261044873165,7.053039027784447e-06,0.0330664403627557,0.0429794558501832,0.4252086805022531
2015-03-26 18:23:57.100,0.049436828476797,-0.0029625486850013,-9.768681568879584,-0.000806905021363,-0.0004488586796799,-0.0006007996285653,0.0327386712498896,0.0459516783735497,0.4248824832417248
2015-03-26 18:23:57.200,0.0312021204705646,-0.0044651996088665,-9.790272564358006,-0.0003885053452082,-0.0007134829003148,4.77720477491274e-05,0.0310518849912651,0.0438125847375546,0.4204922093849794
2015-03-26 18:23:57.300,0.0303467754207937,-0.0170397076465167,-9.778537198496013,2.848502194347256e-06,-0.001265031666299,-9.020032264495392e-05,0.0308860339278525,0.0419592344167772,0.4233177609760585
2015-03-26 18:23:57.400,0.040454442202407,-0.0123653959079101,-9.781605598529346,8.721778753752196e-05,-0.001380957526809,-0.0003717044824899,0.0324819608377461,0.0449651979113385,0.423974888338738
2015-03-26 18:23:57.500,0.0469799375582475,0.0100364565667904,-9.746893571054676,-0.0001847362646429,-0.0015453361637928,-0.0006216229837591,0.0343001648676483,0.0448148991150089,0.4238027891219471
2015-03-26 18:23:57.600,0.0341165712043495,0.007659920367502,-9.75691330745406,0.0001034795694042,-0.0024109751468788,-0.0001630739170158,0.0345064376555783,0.0451839398199915,0.4258831258064484
2015-03-26 18:23:57.700,0.0364069623468189,-0.0142227574439382,-9.7609062897096,-4.156698556550371e-05,-0.0027429588110836,0.0001453658389451,0.0323586178615922,0.0424046242095658,0.4238138937521304
2015-03-26 18:23:57.800,0.0264845336983459,0.0044654837503705,-9.744668566318198,-0.0008033521505727,-0.0026632020733877,-0.000102553010167,0.0344558168279956,0.0460575666342578,0.4242360520160093
2015-03-26 18:23:57.900,0.0292398014750507,0.0027208076560257,-9.750441887295114,-0.0007807349279015,-0.0032796671158804,-0.0005009136693353,0.034309513192394,0.0467481957203878,0.4218952561127836
2015-03-26 18:23:58.000,0.0127800768989615,-0.0016995505991521,-9.70306223607516,-0.0003084340279783,-0.0028328041329012,0.0006493889132408,0.033454316535967,0.0453723427133419,0.4209808371602699
2015-03-26 18:23:58.100,0.0165182666179939,0.0041173864294562,-9.737881813911036,-0.0002029995208588,-0.0033659768499663,1.495519197599715e-06,0.0331361681629112,0.0431589104398135,0.424508817896226
2015-03-26 18:23:58.200,0.0202905982872563,-0.0123427123812804,-9.732557294750327,-0.0008291026268496,-0.0036128902327394,-0.0004299976446049,0.0332929804113387,0.0430786792862627,0.4235900235415403
2015-03-26 18:23:58.300,0.0158649607681501,-0.0197372374836182,-9.715637722945974,-0.0008701566395,-0.0040962239388689,-0.0003996191721797,0.0336100236268287,0.0438012744093255,0.4228868840262334
2015-03-26 18:23:58.400,0.0111356229053551,-0.0066083503477262,-9.707283087585523,-0.0002629063717346,-0.0029178988027344,0.0002722565873253,0.0349904515212676,0.0440636326346325,0.4229216516390737
2015-03-26 18:23:58.500,0.0087478275116383,-0.0018258914601039,-9.718402560712848,-0.0005824949092238,-0.0033631037775191,0.0003328829697672,0.0333801525534554,0.0423784771938823,0.4229219865972241
2015-03-26 18:23:58.600,0.0111200942842928,0.0051493883118226,-9.74042717710138,-0.0002439041765554,-0.0034112295991031,0.0005737046985534,0.0347153563624642,0.0435157642344743,0.4215390224762356
2015-03-26 18:23:58.700,0.0055910978400259,0.0054188545530091,-9.70774934320737,0.0003173908201281,-0.003736758979921,-0.0005833277532024,0.0340487801971153,0.043997080539525,0.4189561469486944
2015-03-26 18:23:58.800,0.0076878094228955,-0.0147087753111841,-9.696959933029667,0.0002187606948967,-0.0028099969605056,-0.0004631275439185,0.0336714707911888,0.0426557459273762,0.4203727658860332
2015-03-26 18:23:58.900,0.0027908364489642,-0.0031259548505982,-9.693287223366031,-0.0007751888615451,-0.0019658654791013,0.0002545946332805,0.0326993527566916,0.0426899613468322,0.4238140392530114
2015-03-26 18:23:59.000,0.0139659465864921,0.0025058344501689,-9.700174091884548,-0.0005140218011594,-0.0027040858665435,-1.41190581128298e-05,0.0333619766234344,0.0436986309764285,0.4233416305957828
2015-03-26 18:23:59.100,0.0091981090563325,-0.0038454521014084,-9.716365605784352,9.030337143634492e-05,-0.002532158954031,-0.0006942110137503,0.0344939277313532,0.0429763499302863,0.4229369121554224
2015-03-26 18:23:59.200,-0.0071978641680203,-0.0131572942231767,-9.712129276443552,0.0004127462836625,-0.0026616325030724,-0.000253920060089,0.0326762474903771,0.0422449311046862,0.4222097469780444
2015-03-26 18:23:59.300,-0.0011699034737505,-0.0127654690524404,-9.72254014689076,0.0003042689523676,-0.0024692032780029,-0.0002660704171138,0.0344108559069682,0.0404220854669801,0.4248641902287581
2015-03-26 18:23:59.400,-0.0196101191440778,0.0008990839468066,-9.737122568312758,2.806966305685798e-05,-0.0027390724363587,-0.0006476753553362,0.0348865841807473,0.0406318927699726,0.4229931464466689
2015-03-26 18:23:59.500,-0.0261925398954662,-0.0052774265908479,-9.72247533812302,-0.0005095554035857,-0.0028877501652622,-0.0003175720088495,0.0363439834832872,0.0428362753014284,0.4241665795998822
2015-03-26 18:23:59.600,-0.0071323559400338,-0.0099410292279165,-9.730109130837077,0.0003308193431157,-0.0009322028358467,-0.0002415336943158,0.036126152172095,0.0431743514722809,0.4269217390838072
2015-03-26 18:23:59.700,-0.0137066168928695,-0.0024413730302955,-9.747229656539524,0.0003071907853793,-0.0009686943046047,0.0002882605057297,0.034055340797151,0.041889594116006,0.4268889190211296
2015-03-26 18:23:59.800,-0.0003373492076782,-0.0066406292723581,-9.711922417701985,0.0003654520961172,-0.0015004141293112,0.0011715548129998,0.0346620157608561,0.0442294947653784,0.4238293537113097
2015-03-26 18:23:59.900,-0.0200702018221253,0.0029957646120418,-9.726840777989322,0.0009710929860839,-0.0010502226718748,0.000180561074511,0.0356476054233776,0.0435808482342669,0.4250439247371648
2015-03-26 18:24:00.000,-0.0321392478226983,-0.0070118194126659,-9.733562634724496,0.0004173642978842,-0.0002324232503236,-0.0002952315512,0.0350445724604803,0.0440725889516276,0.4257042718411435
2015-03-26 18:24:00.100,-0.0214978339937569,-0.006523114617852,-9.72472263607487,0.0001545438656628,0.0002757251259122,-0.0002143200604769,0.0342209819528202,0.0433008277470084,0.4228944121949742
2015-03-26 18:24:00.200,-0.0150040620178723,-0.0083728754218821,-9.716269241584834,0.0001530574430252,0.0003973858628802,-3.3709662876382784e-05,0.0338897743872365,0.0410892456447034,0.4255346374467691
2015-03-26 18:24:00.300,-0.0107976983326953,-0.0095411505651629,-9.738108011421884,0.0005422612287457,0.0009563450461423,0.000191965106964,0.0342820781570663,0.0415563849503878,0.4238993520050748
2015-03-26 18:24:00.400,-0.0244113203415086,-0.0104791653196025,-9.73803149800546,0.0004468376570397,0.0017961053507464,-4.119933953041615e-05,0.0347060695673175,0.0411408671911436,0.4229968861732552
2015-03-26 18:24:00.500,-0.0387499477202842,-0.0014576330568515,-9.74522054827061,0.0005694709680392,0.0010596961160156,-0.0007156032866244,0.0350914235484456,0.0401023958716534,0.423739249613774
2015-03-26 18:24:00.600,0.0026138920426544,-0.0137224771664831,-9.758638782493446,4.2792932655070266e-05,0.0008717507209399,-0.0004349544423984,0.0343544082109025,0.0408576702131063,0.4225236569578365
2015-03-26 18:24:00.700,-0.0114993158466071,-0.0214893703720814,-9.751956668855682,0.0006399896852243,0.0021068913344719,0.0004638368294957,0.0336057601445121,0.0414307684747858,0.424833321064008
2015-03-26 18:24:00.800,-0.0075468759358479,-0.006535296268439,-9.74928216207664,-2.9098272112533144e-05,0.0014434461798866,-1.4064303762400116e-05,0.0323623810559235,0.0419723837080803,0.4242712824389299
2015-03-26 18:24:00.900,0.004414430534334,-0.0033332676970999,-9.751657207396404,0.0008074230347646,0.0017515205260108,7.288748735252324e-05,0.0336528329111165,0.0414224703235367,0.4260028861606439
2015-03-26 18:24:01.000,0.0030192329048301,-0.0019298942568315,-9.753002584980626,0.0011972041413572,0.0014286417914677,0.0002308705077115,0.033918398546061,0.0419842919239775,0.4280632311361423
2015-03-26 18:24:01.100,0.0182889091672773,-0.0126191874173821,-9.767603820329526,6.667419959299401e-06,0.0013677455586013,0.0006789209856828,0.0325114660180012,0.0408327634677015,0.4257367387301763
2015-03-26 18:24:01.200,0.0098581674093183,-0.0162021894538173,-9.783030351984385,1.1688353946473503e-05,0.0026098216816091,0.0005664243917827,0.0335456991298019,0.0436229281983712,0.424072220609353
2015-03-26 18:24:01.300,0.0029378300672862,-0.0007640601108399,-9.768450162728564,-0.0006039916613796,0.0032990988642016,-0.0002967621878285,0.0335683118849403,0.0423035820047602,0.4238841494894103
